time (s)	coil I (A)	last det (V)	int current (uC)
9572.334139	1.311273	0.313847	677.928162
9572.335023	1.719434	0.313847	2197.907471
9572.335892	1.694561	0.313847	3670.480469
9572.336994	1.637351	0.313847	5474.841309
9572.337957	1.588015	0.313847	7004.099609
9572.338829	1.545227	0.313847	8351.537109
9572.339721	1.501154	0.313847	9690.566406
9572.340830	1.453374	0.313847	11302.358398
9572.341700	1.415424	0.313847	12533.777344
9572.342572	1.378975	0.313847	13736.243164
9572.343586	1.337875	0.313847	15092.847656
9572.344564	1.299814	0.313847	16364.066406
9572.345445	1.266687	0.313847	17480.017578
9572.346318	1.233691	0.313847	18557.031250
9572.347439	1.063879	0.313847	19749.640625
9572.348346	0.153743	0.313847	19889.085937
9572.349213	0.090509	0.313847	19967.556641
9572.350271	0.090769	0.313847	20063.589844
9572.351232	0.090564	0.313847	20150.621094
9572.352115	0.090641	0.313847	20230.656250
9572.353138	0.090710	0.313847	20323.453125
9572.354175	0.090630	0.313847	20417.435547
9572.355056	0.090670	0.313847	20497.316406
9572.355959	0.090688	0.313847	20579.208984
9572.357027	0.090754	0.313847	20676.134766
9573.337580	1.249208	0.323680	585.878479
9573.338458	1.717028	0.323680	2093.428711
9573.339320	1.697186	0.323680	3556.403320
9573.340430	1.641376	0.323680	5378.330078
9573.341345	1.593354	0.323680	6836.249512
9573.342223	1.549984	0.323680	8197.135742
9573.343206	1.504065	0.323680	9675.631836
9573.344227	1.457058	0.323680	11163.288086
9573.345119	1.418778	0.323680	12428.837891
9573.345986	1.381725	0.323680	13626.792969
9573.347078	1.338512	0.323680	15088.448242
9573.348022	1.301448	0.323680	16317.014648
9573.348910	1.267958	0.323680	17442.960937
9573.349887	1.233252	0.323680	18647.847656
9573.350904	1.098658	0.323680	19765.183594
9573.351794	0.174565	0.323680	19920.546875
9573.352654	0.090619	0.323680	19998.478516
9573.353726	0.090729	0.323680	20095.740234
9573.354650	0.090656	0.323680	20179.505859
9573.355520	0.090688	0.323680	20258.404297
9573.356460	0.090806	0.323680	20343.761719
9573.357510	0.090710	0.323680	20439.007812
9573.358392	0.090612	0.323680	20518.927734
9573.359257	0.090659	0.323680	20597.347656
9573.360289	0.090743	0.323680	20690.994141
9574.376974	1.272360	0.355266	646.358704
9574.377912	1.719554	0.355266	2259.300781
9574.378787	1.692675	0.355266	3740.391113
9574.379757	1.642679	0.355266	5333.790039
9574.380778	1.589842	0.355266	6957.019043
9574.381661	1.546593	0.355266	8322.661133
9574.382525	1.504805	0.355266	9622.812500
9574.383595	1.456996	0.355266	11181.797852
9574.384530	1.416804	0.355266	12506.509766
9574.385400	1.380344	0.355266	13707.409180
9574.386352	1.341995	0.355266	14984.988281
9574.387400	1.300562	0.355266	16347.976562
9574.388303	1.266537	0.355266	17491.660156
9574.389173	1.234805	0.355266	18565.939453
9574.390214	1.084471	0.355266	19694.875000
9574.391177	0.166597	0.355266	19855.306641
9574.392051	0.090593	0.355266	19934.484375
9574.392976	0.090667	0.355266	20018.351562
9574.394026	0.090729	0.355266	20113.617187
9574.394914	0.090656	0.355266	20194.119141
9574.395775	0.090692	0.355266	20272.205078
9574.396828	0.090831	0.355266	20367.849609
9574.397775	0.090663	0.355266	20453.707031
9574.398647	0.090656	0.355266	20532.757812
9574.399555	0.090729	0.355266	20615.138672
9575.374296	1.211473	0.370010	539.105652
9575.375172	1.715196	0.370010	2041.617676
9575.376037	1.699248	0.370010	3511.467285
9575.377101	1.645239	0.370010	5262.001953
9575.377986	1.597082	0.370010	6675.419922
9575.378905	1.552280	0.370010	8101.965820
9575.379786	1.509155	0.370010	9431.531250
9575.380842	1.461797	0.370010	10975.188477
9575.381752	1.422814	0.370010	12269.949219
9575.382634	1.386108	0.370010	13492.497070
9575.383650	1.345737	0.370010	14859.766602
9575.384581	1.307926	0.370010	16077.445312
9575.385508	1.273180	0.370010	17257.683594
9575.386379	1.240268	0.370010	18337.957031
9575.387428	1.203637	0.370010	19600.572266
9575.388322	0.337123	0.370010	19901.960937
9575.389189	0.090831	0.370010	19980.710937
9575.390175	0.090787	0.370010	20070.226562
9575.391098	0.090721	0.370010	20153.962891
9575.392016	0.090604	0.370010	20237.136719
9575.392895	0.090685	0.370010	20316.849609
9575.393918	0.090736	0.370010	20409.671875
9575.394818	0.090667	0.370010	20491.271484
9575.395689	0.090714	0.370010	20570.283203
9575.396615	0.090787	0.370010	20654.351562
9576.424927	1.233512	0.385990	567.415466
9576.425814	1.716738	0.385990	2090.162354
9576.426797	1.692587	0.385990	3753.975098
9576.427745	1.641431	0.385990	5310.051270
9576.428676	1.594508	0.385990	6794.538086
9576.429548	1.550581	0.385990	8146.644531
9576.430599	1.501750	0.385990	9724.984375
9576.431492	1.460731	0.385990	11029.416992
9576.432412	1.421396	0.385990	12337.101562
9576.433284	1.384288	0.385990	13544.201172
9576.434281	1.344803	0.385990	14884.970703
9576.435207	1.308768	0.385990	16096.890625
9576.436068	1.275059	0.385990	17194.716797
9576.437095	1.238243	0.385990	18466.392578
9576.438004	1.205654	0.385990	19562.332031
9576.438920	0.368097	0.385990	19899.509766
9576.439792	0.090875	0.385990	19978.753906
9576.440754	0.090656	0.385990	20065.964844
9576.441702	0.090579	0.385990	20151.833984
9576.442587	0.090652	0.385990	20232.060547
9576.443579	0.090699	0.385990	20322.035156
9576.444483	0.090593	0.385990	20403.931641
9576.445403	0.090637	0.385990	20487.318359
9576.446265	0.090641	0.385990	20565.451172
9576.447301	0.090615	0.385990	20659.328125
9577.413133	1.267372	0.320349	636.220642
9577.414092	1.719672	0.320349	2285.385742
9577.414961	1.692085	0.320349	3755.807617
9577.416030	1.636362	0.320349	5505.079102
9577.417051	1.584584	0.320349	7122.938965
9577.417936	1.541005	0.320349	8486.728516
9577.418869	1.496884	0.320349	9883.320312
9577.419926	1.449283	0.320349	11415.212891
9577.420870	1.409293	0.320349	12745.585937
9577.421736	1.372606	0.320349	13934.262695
9577.422796	1.330822	0.320349	15344.933594
9577.423822	1.290875	0.320349	16669.371094
9577.424702	1.258026	0.320349	17776.433594
9577.425663	1.223489	0.320349	18952.207031
9577.426743	0.774031	0.320349	19788.160156
9577.427652	0.098361	0.320349	19877.570312
9577.428522	0.090597	0.320349	19956.388672
9577.429573	0.090732	0.320349	20051.748047
9577.430567	0.090630	0.320349	20141.833984
9577.431458	0.090648	0.320349	20222.601562
9577.432421	0.090721	0.320349	20309.966797
9577.433476	0.090648	0.320349	20405.601562
9577.434386	0.090699	0.320349	20488.138672
9577.435248	0.090732	0.320349	20566.349609
9577.436351	0.090696	0.320349	20666.386719
9578.470854	1.200344	0.371722	522.149719
9578.471716	1.713618	0.371722	1999.288574
9578.472790	1.689998	0.371722	3814.345947
9578.473799	1.637007	0.371722	5466.085937
9578.474673	1.592010	0.371722	6857.502930
9578.475645	1.544564	0.371722	8358.819336
9578.476706	1.494309	0.371722	9944.281250
9578.477620	1.452876	0.371722	11272.209961
9578.478487	1.414303	0.371722	12498.411133
9578.479602	1.369365	0.371722	14025.252930
9578.480575	1.330353	0.371722	15319.686523
9578.481460	1.296182	0.371722	16466.806641
9578.482467	1.258916	0.371722	17734.535156
9578.483530	1.221229	0.371722	19032.701172
9578.484427	0.903940	0.371722	19843.535156
9578.485326	0.113888	0.371722	19945.919922
9578.486416	0.090718	0.371722	20044.802734
9578.487376	0.090729	0.371722	20131.902344
9578.488240	0.090619	0.371722	20210.197266
9578.489275	0.090784	0.371722	20304.158203
9578.490296	0.090685	0.371722	20396.748047
9578.491182	0.090685	0.371722	20477.095703
9578.492107	0.090732	0.371722	20561.023437
9578.493172	0.090754	0.371722	20657.677734
9578.494101	0.090586	0.371722	20741.832031
9579.445805	1.313990	0.278216	692.472961
9579.446858	1.719108	0.278216	2502.693359
9579.447755	1.683735	0.278216	4013.003906
9579.448695	1.635000	0.278216	5549.903809
9579.449757	1.580537	0.278216	7228.434082
9579.450702	1.535116	0.278216	8679.119141
9579.451569	1.493324	0.278216	9973.831055
9579.452637	1.446292	0.278216	11518.470703
9579.453652	1.403331	0.278216	12942.851562
9579.454549	1.366029	0.278216	14168.179687
9579.455519	1.327932	0.278216	15456.273437
9579.456566	1.287067	0.278216	16803.832031
9579.457475	1.253214	0.278216	17943.003906
9579.458337	1.221570	0.278216	18995.996094
9579.459439	0.707494	0.278216	19775.654297
9579.460448	0.093032	0.278216	19869.523437
9579.461328	0.090663	0.278216	19949.306641
9579.462334	0.090758	0.278216	20040.609375
9579.463407	0.090718	0.278216	20137.949219
9579.464287	0.090582	0.278216	20217.662109
9579.465144	0.090663	0.278216	20295.359375
9579.466229	0.090795	0.278216	20393.871094
9579.467192	0.090619	0.278216	20481.136719
9579.468061	0.090601	0.278216	20559.869141
9579.469104	0.090696	0.278216	20654.464844
9580.513736	1.218530	0.325154	533.716248
9580.514611	1.714874	0.325154	2034.231201
9580.515629	1.691796	0.325154	3756.479248
9580.516675	1.637805	0.325154	5469.623535
9580.517561	1.591512	0.325154	6879.703613
9580.518456	1.546395	0.325154	8263.727539
9580.519546	1.496166	0.325154	9894.547852
9580.520500	1.453129	0.325154	11280.832031
9580.521365	1.415892	0.325154	12505.579102
9580.522417	1.372826	0.325154	13949.791992
9580.523452	1.331235	0.325154	15327.621094
9580.524341	1.296200	0.325154	16479.943359
9580.525288	1.260725	0.325154	17673.849609
9580.526376	1.222229	0.325154	19003.634766
9580.527293	0.901996	0.325154	19830.765625
9580.528168	0.114957	0.325154	19931.353516
9580.529221	0.090659	0.325154	20026.818359
9580.530231	0.090637	0.325154	20118.361328
9580.531120	0.090612	0.325154	20198.914062
9580.532093	0.090758	0.325154	20287.220703
9580.533147	0.090685	0.325154	20382.802734
9580.534058	0.090762	0.325154	20465.486328
9580.534920	0.090652	0.325154	20543.628906
9580.536009	0.090806	0.325154	20642.515625
9580.536997	0.090648	0.325154	20732.076172
9581.483489	1.247673	0.339237	572.682068
9581.484370	1.716163	0.339237	2084.621826
9581.485350	1.692187	0.339237	3742.965332
9581.486403	1.636882	0.339237	5466.602539
9581.487318	1.589627	0.339237	6921.110840
9581.488183	1.545762	0.339237	8258.194336
9581.489294	1.494591	0.339237	9918.684570
9581.490266	1.450788	0.339237	11328.850586
9581.491154	1.413384	0.339237	12583.935547
9581.492181	1.371207	0.339237	13992.165039
9581.493238	1.329181	0.339237	15397.109375
9581.494136	1.293208	0.339237	16558.410156
9581.495030	1.259158	0.339237	17684.097656
9581.496134	1.220779	0.339237	19031.837891
9581.497088	0.845372	0.339237	19838.322266
9581.497948	0.107366	0.339237	19930.656250
9581.498992	0.090732	0.339237	20025.380859
9581.500014	0.090571	0.339237	20117.945312
9581.500892	0.090612	0.339237	20197.501953
9581.501835	0.090688	0.339237	20283.021484
9581.502897	0.090696	0.339237	20379.339844
9581.503825	0.090623	0.339237	20463.437500
9581.504680	0.090648	0.339237	20540.941406
9581.505709	0.090703	0.339237	20634.275391
9581.506729	0.090593	0.339237	20726.679687
9582.553547	1.210730	0.333501	531.510437
9582.554420	1.714651	0.333501	2028.400635
9582.555428	1.691539	0.333501	3733.472168
9582.556489	1.637168	0.333501	5470.507324
9582.557377	1.590787	0.333501	6883.126465
9582.558268	1.545472	0.333501	8260.142578
9582.559388	1.494075	0.333501	9933.505859
9582.560351	1.450822	0.333501	11330.646484
9582.561218	1.413567	0.333501	12556.208984
9582.562285	1.369918	0.333501	14017.912109
9582.563306	1.329152	0.333501	15374.975586
9582.564190	1.294402	0.333501	16519.226562
9582.565173	1.258557	0.333501	17756.388672
9582.566212	1.221141	0.333501	19025.154297
9582.567137	0.878287	0.333501	19837.570312
9582.567994	0.111599	0.333501	19933.210937
9582.569041	0.090784	0.333501	20028.261719
9582.570049	0.090696	0.333501	20119.683594
9582.570922	0.090626	0.333501	20198.800781
9582.571904	0.090765	0.333501	20287.931641
9582.572953	0.090659	0.333501	20383.033203
9582.573860	0.090718	0.333501	20465.314453
9582.574723	0.090707	0.333501	20543.593750
9582.575814	0.090853	0.333501	20642.714844
9582.576796	0.090659	0.333501	20731.742187
9583.525396	1.234860	0.364128	637.187622
9583.526450	1.718071	0.364128	2448.034668
9583.527339	1.684937	0.364128	3945.943359
9583.528202	1.638765	0.364128	5360.197266
9583.529241	1.585415	0.364128	7007.443359
9583.530210	1.539056	0.364128	8498.789062
9583.531091	1.497210	0.364128	9817.831055
9583.532021	1.455117	0.364128	11171.089844
9583.533091	1.410106	0.364128	12679.903320
9583.533989	1.372339	0.364128	13912.263672
9583.534859	1.337421	0.364128	15075.819336
9583.535910	1.296277	0.364128	16438.207031
9583.536875	1.260564	0.364128	17654.650391
9583.537751	1.228861	0.364128	18731.132812
9583.538644	1.046913	0.364128	19666.025391
9583.539751	0.127914	0.364128	19807.626953
9583.540634	0.090604	0.364128	19887.630859
9583.541490	0.090692	0.364128	19965.263672
9583.542533	0.090773	0.364128	20059.939453
9583.543487	0.090619	0.364128	20146.390625
9583.544346	0.090710	0.364128	20224.310547
9583.545231	0.090656	0.364128	20304.541016
9583.546324	0.090703	0.364128	20403.679687
9583.547222	0.090648	0.364128	20485.082031
9583.548084	0.090634	0.364128	20563.208984
9584.593348	1.195865	0.365127	516.613831
9584.594229	1.714548	0.365127	2027.130859
9584.595097	1.696036	0.365127	3499.290527
9584.596236	1.640127	0.365127	5367.395020
9584.597137	1.593292	0.365127	6802.951172
9584.598010	1.550336	0.365127	8156.394043
9584.599054	1.500740	0.365127	9723.166016
9584.600049	1.455916	0.365127	11171.801758
9584.600927	1.418013	0.365127	12416.816406
9584.601814	1.380095	0.365127	13640.960937
9584.602921	1.337483	0.365127	15121.554687
9584.603804	1.302012	0.365127	16271.230469
9584.604664	1.269503	0.365127	17363.003906
9584.605712	1.232098	0.365127	18654.242187
9584.606676	1.128666	0.365127	19742.275391
9584.607550	0.197820	0.365127	19915.169922
9584.608410	0.090586	0.365127	19993.074219
9584.609536	0.090630	0.365127	20095.123047
9584.610435	0.090652	0.365127	20176.619141
9584.611299	0.090688	0.365127	20254.974609
9584.612359	0.090648	0.365127	20351.062500
9584.613329	0.090571	0.365127	20438.916016
9584.614203	0.090597	0.365127	20518.097656
9584.615059	0.090681	0.365127	20595.720703
9584.616178	0.090740	0.365127	20697.257812
9585.564103	1.198488	0.370396	523.739075
9585.564969	1.713300	0.370396	2007.456543
9585.566060	1.688741	0.370396	3849.873535
9585.566950	1.640171	0.370396	5309.625488
9585.567868	1.593706	0.370396	6772.647461
9585.568748	1.548713	0.370396	8135.515137
9585.569787	1.501223	0.370396	9695.286133
9585.570689	1.459951	0.370396	11012.162109
9585.571563	1.422755	0.370396	12255.650391
9585.572564	1.381611	0.370396	13638.643555
9585.573523	1.341768	0.370396	14925.398437
9585.574464	1.305333	0.370396	16153.716797
9585.575330	1.271777	0.370396	17255.076172
9585.576375	1.234735	0.370396	18545.375000
9585.577255	1.201989	0.370396	19603.125000
9585.578130	0.341591	0.370396	19902.017578
9585.579112	0.090919	0.370396	19991.300781
9585.580035	0.090696	0.370396	20075.013672
9585.580952	0.090623	0.370396	20158.115234
9585.581830	0.090630	0.370396	20237.687500
9585.582849	0.090718	0.370396	20330.128906
9585.583750	0.090626	0.370396	20411.783203
9585.584624	0.090656	0.370396	20491.015625
9585.585544	0.090703	0.370396	20574.462891
9585.586560	0.090677	0.370396	20666.591797
9586.634185	1.209353	0.371141	523.649841
9586.635058	1.714080	0.371141	2020.041260
9586.636076	1.691554	0.371141	3742.043213
9586.636982	1.643807	0.371141	5231.332520
9586.637855	1.598408	0.371141	6626.743164
9586.638767	1.553240	0.371141	8043.297852
9586.639764	1.505284	0.371141	9544.066406
9586.640697	1.463335	0.371141	10909.358398
9586.641577	1.425509	0.371141	12163.806641
9586.642595	1.384493	0.371141	13573.220703
9586.643518	1.345309	0.371141	14814.940430
9586.644445	1.309420	0.371141	16028.773437
9586.645308	1.275059	0.371141	17129.148437
9586.646332	1.238496	0.371141	18397.369141
9586.647237	1.206735	0.371141	19489.464844
9586.648122	0.451890	0.371141	19889.386719
9586.649103	0.091461	0.371141	19979.109375
9586.650045	0.090637	0.371141	20064.490234
9586.650971	0.090630	0.371141	20148.414062
9586.651836	0.090634	0.371141	20226.812500
9586.652871	0.090667	0.371141	20320.652344
9586.653762	0.090586	0.371141	20401.365234
9586.654634	0.090601	0.371141	20480.369141
9586.655601	0.090707	0.371141	20568.082031
9586.656584	0.090623	0.371141	20657.164062
9586.657508	0.090637	0.371141	20740.912109
9587.603953	1.262791	0.385756	597.299927
9587.604835	1.715823	0.385756	2110.655762
9587.605860	1.689331	0.385756	3842.220215
9587.606755	1.640713	0.385756	5310.658203
9587.607664	1.594072	0.385756	6759.669922
9587.608541	1.549080	0.385756	8118.212891
9587.609600	1.500890	0.385756	9707.655273
9587.610494	1.460196	0.385756	11013.071289
9587.611371	1.422748	0.385756	12260.821289
9587.612370	1.381904	0.385756	13641.343750
9587.613314	1.342767	0.385756	14908.916016
9587.614245	1.306282	0.385756	16125.064453
9587.615116	1.272352	0.385756	17233.283203
9587.616160	1.235632	0.385756	18523.283203
9587.617044	1.204193	0.385756	19587.789062
9587.617917	0.372312	0.385756	19912.818359
9587.618906	0.091154	0.385756	20002.968750
9587.619842	0.090663	0.385756	20087.830078
9587.620750	0.090634	0.385756	20170.125000
9587.621628	0.090652	0.385756	20249.716797
9587.622650	0.090641	0.385756	20342.351562
9587.623549	0.090648	0.385756	20423.843750
9587.624419	0.090648	0.385756	20502.707031
9587.625317	0.090601	0.385756	20584.066406
9587.626323	0.090568	0.385756	20675.177734
9588.670932	1.229220	0.368938	544.544495
9588.671796	1.713285	0.368938	2024.822510
9588.672835	1.689166	0.368938	3779.866211
9588.673736	1.642266	0.368938	5259.547852
9588.674616	1.597097	0.368938	6664.993164
9588.675615	1.548871	0.368938	8212.315430
9588.676556	1.503069	0.368938	9626.703125
9588.677478	1.461277	0.368938	10974.000000
9588.678346	1.422982	0.368938	12209.148437
9588.679393	1.380677	0.368938	13654.717773
9588.680283	1.344309	0.368938	14851.152344
9588.681163	1.309885	0.368938	16003.851562
9588.682154	1.273165	0.368938	17265.558594
9588.683107	1.237701	0.368938	18445.087891
9588.684018	1.205365	0.368938	19543.175781
9588.684898	0.399137	0.368938	19894.416016
9588.685921	0.090685	0.368938	19987.187500
9588.686812	0.090604	0.368938	20067.916016
9588.687684	0.090626	0.368938	20146.941406
9588.688625	0.090582	0.368938	20232.179687
9588.689609	0.090615	0.368938	20321.345703
9588.690520	0.090597	0.368938	20403.878906
9588.691399	0.090586	0.368938	20483.503906
9588.692409	0.090619	0.368938	20575.029297
9588.693312	0.090542	0.368938	20656.789062
9588.694232	0.090560	0.368938	20740.105469
9589.643725	1.202560	0.410116	532.734009
9589.644642	1.715500	0.410116	2105.847900
9589.645505	1.694319	0.410116	3568.044922
9589.646502	1.644269	0.410116	5207.380859
9589.647427	1.597082	0.410116	6684.682129
9589.648289	1.552775	0.410116	8023.173828
9589.649309	1.505120	0.410116	9558.395508
9589.650209	1.463551	0.410116	10875.591797
9589.651135	1.424447	0.410116	12194.629883
9589.652003	1.387394	0.410116	13398.887695
9589.653007	1.347920	0.410116	14752.199219
9589.653936	1.310815	0.410116	15969.946289
9589.654811	1.277424	0.410116	17087.693359
9589.655856	1.239888	0.410116	18383.375000
9589.656752	1.207449	0.410116	19465.250000
9589.657677	0.445895	0.410116	19877.703125
9589.658538	0.091315	0.410116	19956.324219
9589.659504	0.090659	0.410116	20043.900391
9589.660445	0.090623	0.410116	20129.175781
9589.661335	0.090685	0.410116	20209.884766
9589.662327	0.090612	0.410116	20299.771484
9589.663238	0.090626	0.410116	20382.332031
9589.664161	0.090648	0.410116	20466.000000
9589.665025	0.090681	0.410116	20544.347656
9589.666068	0.090619	0.410116	20638.863281
9589.666953	0.090648	0.410116	20719.087891
9590.710750	1.242316	0.356917	560.284363
9590.711629	1.714984	0.356917	2067.755371
9590.712599	1.692184	0.356917	3709.173584
9590.713508	1.643793	0.356917	5203.381348
9590.714399	1.598379	0.356917	6627.537109
9590.715387	1.550691	0.356917	8159.619629
9590.716317	1.505325	0.356917	9559.571289
9590.717253	1.462943	0.356917	10928.885742
9590.718130	1.425209	0.356917	12178.793945
9590.719085	1.386537	0.356917	13502.936523
9590.720017	1.347817	0.356917	14759.102539
9590.720896	1.312749	0.356917	15913.008789
9590.721812	1.277527	0.356917	17083.222656
9590.722826	1.241378	0.356917	18341.980469
9590.723757	1.208379	0.356917	19466.980469
9590.724625	0.509052	0.356917	19908.837891
9590.725668	0.091263	0.356917	20004.025391
9590.726553	0.090674	0.356917	20084.271484
9590.727465	0.090656	0.356917	20166.949219
9590.728342	0.090703	0.356917	20246.496094
9590.729297	0.090707	0.356917	20333.121094
9590.730217	0.090681	0.356917	20416.546875
9590.731093	0.090677	0.356917	20495.980469
9590.732056	0.090626	0.356917	20583.253906
9590.732989	0.090623	0.356917	20667.804687
9590.733909	0.090710	0.356917	20751.257812
9591.684645	1.297925	0.421020	676.218872
9591.685672	1.717928	0.421020	2440.531250
9591.686573	1.684113	0.421020	3957.916504
9591.687536	1.634462	0.421020	5531.903320
9591.688595	1.579867	0.421020	7204.982422
9591.689539	1.534098	0.421020	8653.170898
9591.690406	1.492342	0.421020	9947.032227
9591.691486	1.444970	0.421020	11507.599609
9591.692486	1.402698	0.421020	12910.296875
9591.693376	1.365938	0.421020	14125.981445
9591.694374	1.326786	0.421020	15450.113281
9591.695441	1.285455	0.421020	16821.693359
9591.696345	1.251566	0.421020	17953.109375
9591.697206	1.219493	0.421020	19003.093750
9591.698315	0.690740	0.421020	19769.125000
9591.699271	0.093475	0.421020	19858.488281
9591.700145	0.090656	0.421020	19937.720703
9591.701157	0.090707	0.421020	20029.515625
9591.702213	0.090641	0.421020	20125.232422
9591.703085	0.090648	0.421020	20204.277344
9591.703991	0.090630	0.421020	20286.388672
9591.704866	0.090619	0.421020	20365.679687
9591.705866	0.090648	0.421020	20456.328125
9591.706797	0.090645	0.421020	20540.718750
9591.707673	0.090623	0.421020	20620.103516
9592.749512	1.206152	0.369675	524.676270
9592.750372	1.712304	0.369675	1997.257324
9592.751467	1.687566	0.369675	3845.142090
9592.752461	1.635110	0.369675	5470.441406
9592.753345	1.590439	0.369675	6876.389648
9592.754355	1.541836	0.369675	8433.643555
9592.755417	1.492200	0.369675	10018.359375
9592.756290	1.451382	0.369675	11285.416016
9592.757208	1.412805	0.369675	12582.371094
9592.758089	1.375935	0.369675	13794.570312
9592.759069	1.336263	0.369675	15104.108398
9592.759996	1.299910	0.369675	16309.125000
9592.760921	1.265698	0.369675	17479.896484
9592.761789	1.233406	0.369675	18550.492187
9592.762795	1.141304	0.369675	19698.644531
9592.763725	0.198713	0.369675	19883.447266
9592.764590	0.090648	0.369675	19961.857422
9592.765600	0.090667	0.369675	20053.429687
9592.766481	0.090659	0.369675	20133.300781
9592.767382	0.090688	0.369675	20215.011719
9592.768255	0.090630	0.369675	20294.130859
9592.769222	0.090560	0.369675	20381.703125
9592.770145	0.090619	0.369675	20465.343750
9592.771034	0.090656	0.369675	20545.935547
9592.771893	0.090663	0.369675	20623.814453
9593.726394	1.187809	0.398482	502.443146
9593.727357	1.711263	0.398482	2150.389893
9593.728421	1.684424	0.398482	3942.616699
9593.729349	1.635498	0.398482	5460.358887
9593.730214	1.590351	0.398482	6836.012695
9593.731309	1.538049	0.398482	8520.176758
9593.732315	1.490237	0.398482	10019.355469
9593.733214	1.450261	0.398482	11323.140625
9593.734204	1.408601	0.398482	12717.655273
9593.735255	1.365436	0.398482	14152.728516
9593.736159	1.328624	0.398482	15353.804687
9593.737024	1.293340	0.398482	16472.542969
9593.738134	1.253906	0.398482	17864.378906
9593.739102	1.219618	0.398482	19044.968750
9593.739962	0.916937	0.398482	19833.535156
9593.741054	0.100558	0.398482	19943.343750
9593.742091	0.090648	0.398482	20037.345703
9593.742968	0.090637	0.398482	20116.833984
9593.743890	0.090703	0.398482	20200.462891
9593.744965	0.090656	0.398482	20297.917969
9593.745902	0.090619	0.398482	20382.828125
9593.746760	0.090630	0.398482	20460.587891
9593.747787	0.090729	0.398482	20553.765625
9593.748816	0.090593	0.398482	20646.986328
9593.749706	0.090685	0.398482	20727.695312
9594.789333	1.224924	0.382957	536.516846
9594.790198	1.712750	0.382957	2018.045776
9594.791298	1.686123	0.382957	3872.781250
9594.792301	1.633506	0.382957	5511.187500
9594.793184	1.588931	0.382957	6914.213379
9594.794182	1.540668	0.382957	8451.799805
9594.795248	1.490826	0.382957	10041.020508
9594.796130	1.450302	0.382957	11320.186523
9594.797018	1.411560	0.382957	12573.652344
9594.798134	1.367058	0.382957	14099.289062
9594.799080	1.328936	0.382957	15356.461914
9594.799942	1.295057	0.382957	16472.800781
9594.800968	1.257133	0.382957	17762.619141
9594.802018	1.219863	0.382957	19043.476562
9594.802902	0.895836	0.382957	19835.396484
9594.803852	0.113298	0.382957	19943.029297
9594.804911	0.090732	0.382957	20039.115234
9594.805842	0.090641	0.382957	20123.501953
9594.806709	0.090656	0.382957	20202.099609
9594.807762	0.090707	0.382957	20297.613281
9594.808774	0.090652	0.382957	20389.353516
9594.809663	0.090615	0.382957	20469.910156
9594.810625	0.090710	0.382957	20557.173828
9594.811686	0.090659	0.382957	20653.363281
9594.812611	0.090612	0.382957	20737.179687
9595.766202	1.187292	0.358114	499.850128
9595.767162	1.711263	0.358114	2142.663086
9595.768222	1.684607	0.358114	3928.346436
9595.769148	1.636241	0.358114	5443.505859
9595.770023	1.590326	0.358114	6835.041016
9595.771108	1.538383	0.358114	8504.185547
9595.772112	1.490911	0.358114	10001.059570
9595.773003	1.451118	0.358114	11294.005859
9595.773990	1.409630	0.358114	12685.310547
9595.775045	1.366091	0.358114	14126.537109
9595.775954	1.329239	0.358114	15334.815430
9595.776822	1.293809	0.358114	16457.841797
9595.777927	1.254489	0.358114	17844.050781
9595.778889	1.220358	0.358114	19018.035156
9595.779752	0.942400	0.358114	19831.326172
9595.780831	0.102810	0.358114	19942.257812
9595.781872	0.090641	0.358114	20036.615234
9595.782756	0.090623	0.358114	20116.724609
9595.783681	0.090645	0.358114	20200.570312
9595.784734	0.090776	0.358114	20296.158203
9595.785671	0.090615	0.358114	20381.064453
9595.786529	0.090626	0.358114	20458.822266
9595.787572	0.090699	0.358114	20553.421875
9595.788597	0.090582	0.358114	20646.269531
9595.789470	0.090688	0.358114	20725.441406
9596.825092	1.263409	0.383504	625.387634
9596.825969	1.716456	0.383504	2130.719727
9596.826898	1.691759	0.383504	3702.363770
9596.827973	1.636139	0.383504	5461.212891
9596.828915	1.587649	0.383504	6956.778320
9596.829783	1.544714	0.383504	8297.589844
9596.830842	1.495301	0.383504	9881.114258
9596.831876	1.448829	0.383504	11379.204102
9596.832763	1.411135	0.383504	12630.880859
9596.833741	1.371339	0.383504	13972.050781
9596.834804	1.328416	0.383504	15384.156250
9596.835725	1.292084	0.383504	16574.166016
9596.836588	1.259282	0.383504	17660.925781
9596.837689	1.221193	0.383504	19005.458984
9596.838691	0.809985	0.383504	19817.064453
9596.839562	0.103004	0.383504	19906.781250
9596.840544	0.090765	0.383504	19995.912109
9596.841599	0.090677	0.383504	20091.576172
9596.842490	0.090601	0.383504	20172.300781
9596.843357	0.090703	0.383504	20250.939453
9596.844450	0.090853	0.383504	20350.242187
9596.845415	0.090670	0.383504	20437.738281
9596.846297	0.090648	0.383504	20517.689453
9596.847295	0.090802	0.383504	20608.310547
9596.848362	0.090747	0.383504	20705.136719
9597.810156	1.220032	0.333086	574.634949
9597.811223	1.716573	0.333086	2406.218750
9597.812151	1.683571	0.333086	3968.572266
9597.813013	1.637655	0.333086	5380.230957
9597.814039	1.585115	0.333086	7006.558594
9597.815070	1.535332	0.333086	8589.486328
9597.815968	1.492925	0.333086	9930.132812
9597.816935	1.450543	0.333086	11332.808594
9597.817985	1.405642	0.333086	12808.732422
9597.818915	1.366956	0.333086	14080.000977
9597.819791	1.331173	0.333086	15246.108398
9597.820867	1.289821	0.333086	16633.955078
9597.821884	1.252277	0.333086	17907.519531
9597.822781	1.220493	0.333086	19002.302734
9597.823767	0.792206	0.333086	19783.417969
9597.824836	0.094742	0.333086	19884.697266
9597.825737	0.090597	0.333086	19966.324219
9597.826603	0.090718	0.333086	20044.886719
9597.827717	0.090740	0.333086	20145.970703
9597.828681	0.090586	0.333086	20233.294922
9597.829550	0.090623	0.333086	20312.046875
9597.830627	0.090743	0.333086	20409.777344
9597.831656	0.090751	0.333086	20503.160156
9597.832541	0.090659	0.333086	20583.392578
9597.833457	0.090710	0.333086	20666.482422
9598.857738	1.267295	0.389011	636.182007
9598.858682	1.718038	0.389011	2258.010254
9598.859542	1.691228	0.389011	3712.466309
9598.860603	1.636234	0.389011	5448.510742
9598.861631	1.583785	0.389011	7076.642090
9598.862526	1.540115	0.389011	8455.044922
9598.863482	1.495441	0.389011	9884.686523
9598.864528	1.448218	0.389011	11399.522461
9598.865452	1.409169	0.389011	12701.594727
9598.866316	1.372291	0.389011	13887.253906
9598.867386	1.330400	0.389011	15310.782227
9598.868417	1.290289	0.389011	16641.070312
9598.869295	1.257532	0.389011	17745.183594
9598.870295	1.222654	0.389011	18967.837891
9598.871368	0.771551	0.389011	19795.712891
9598.872270	0.098760	0.389011	19884.794922
9598.873128	0.090641	0.389011	19962.564453
9598.874205	0.090842	0.389011	20060.402344
9598.875192	0.090645	0.389011	20149.869141
9598.876087	0.090692	0.389011	20231.039062
9598.877065	0.090839	0.389011	20319.878906
9598.878105	0.090707	0.389011	20414.214844
9598.879003	0.090648	0.389011	20495.617187
9598.879864	0.090718	0.389011	20573.724609
9598.880970	0.090868	0.389011	20674.224609
9599.855074	1.248508	0.364346	574.313782
9599.855955	1.714867	0.364346	2085.111572
9599.856816	1.694396	0.364346	3543.986328
9599.857911	1.640021	0.364346	5339.809082
9599.858816	1.593124	0.364346	6781.585937
9599.859686	1.550087	0.364346	8130.161133
9599.860673	1.503417	0.364346	9614.033203
9599.861685	1.457014	0.364346	11088.531250
9599.862579	1.418994	0.364346	12357.112305
9599.863446	1.381564	0.364346	13554.927734
9599.864552	1.338581	0.364346	15035.398437
9599.865464	1.302176	0.364346	16222.983398
9599.866347	1.269404	0.364346	17343.867187
9599.867339	1.233823	0.364346	18567.820312
9599.868348	1.142736	0.364346	19720.839844
9599.869241	0.203848	0.364346	19902.875000
9599.870101	0.090546	0.364346	19980.744141
9599.871180	0.090688	0.364346	20078.597656
9599.872092	0.090619	0.364346	20161.242187
9599.872962	0.090667	0.364346	20240.121094
9599.873958	0.090762	0.364346	20330.519531
9599.874958	0.090641	0.364346	20421.160156
9599.875841	0.090641	0.364346	20501.195312
9599.876706	0.090747	0.364346	20579.691406
9599.877770	0.090703	0.364346	20676.199219
9600.893371	1.212715	0.413632	514.191101
9600.894482	1.716551	0.413632	2421.279785
9600.895401	1.683362	0.413632	3968.289307
9600.896281	1.637183	0.413632	5409.009766
9600.897281	1.587092	0.413632	6996.102051
9600.898286	1.537548	0.413632	8541.337891
9600.899186	1.494994	0.413632	9886.832031
9600.900053	1.454641	0.413632	11148.005859
9600.901135	1.410286	0.413632	12673.935547
9600.902041	1.372159	0.413632	13917.112305
9600.902918	1.337142	0.413632	15089.786133
9600.903937	1.298298	0.413632	16412.751953
9600.904938	1.260322	0.413632	17674.333984
9600.905826	1.228257	0.413632	18765.025391
9600.906690	1.063118	0.413632	19683.558594
9600.907768	0.137651	0.413632	19831.947266
9600.908681	0.090491	0.413632	19914.564453
9600.909558	0.090648	0.413632	19994.062500
9600.910535	0.090743	0.413632	20082.718750
9600.911545	0.090641	0.413632	20174.265625
9600.912429	0.090623	0.413632	20254.375000
9600.913291	0.090656	0.413632	20332.519531
9600.914362	0.090721	0.413632	20429.681641
9600.915288	0.090619	0.413632	20513.595703
9600.916160	0.090659	0.413632	20592.650391
9601.896885	1.192848	0.383650	500.996155
9601.897952	1.717419	0.383650	2333.482666
9601.898845	1.687570	0.383650	3840.482422
9601.899720	1.641551	0.383650	5276.839844
9601.900657	1.593772	0.383650	6770.204102
9601.901656	1.545406	0.383650	8314.065430
9601.902576	1.501545	0.383650	9695.487305
9601.903438	1.461412	0.383650	10955.224609
9601.904490	1.417716	0.383650	12446.662109
9601.905375	1.379908	0.383650	13667.880859
9601.906254	1.344104	0.383650	14849.348633
9601.907122	1.308274	0.383650	15984.930664
9601.908184	1.269668	0.383650	17333.318359
9601.909083	1.237251	0.383650	18445.607422
9601.909965	1.206218	0.383650	19509.492187
9601.910987	0.359971	0.383650	19877.382812
9601.911912	0.090546	0.383650	19961.136719
9601.912837	0.090648	0.383650	20044.986328
9601.913696	0.090670	0.383650	20122.871094
9601.914735	0.090623	0.383650	20217.027344
9601.915622	0.090634	0.383650	20297.419922
9601.916487	0.090663	0.383650	20375.843750
9601.917450	0.090637	0.383650	20463.126953
9601.918394	0.090630	0.383650	20548.681641
9601.919307	0.090615	0.383650	20631.414062
9601.920186	0.090681	0.383650	20711.123047
9602.932152	1.185267	0.396516	497.812286
9602.933116	1.710597	0.396516	2146.827637
9602.934178	1.683669	0.396516	3934.884766
9602.935106	1.635216	0.396516	5452.365234
9602.935972	1.589923	0.396516	6829.238770
9602.937054	1.538291	0.396516	8493.669922
9602.938042	1.491482	0.396516	9967.253906
9602.938935	1.451389	0.396516	11263.344727
9602.939923	1.410187	0.396516	12656.609375
9602.940988	1.365879	0.396516	14111.270508
9602.941894	1.329144	0.396516	15315.475586
9602.942767	1.293772	0.396516	16444.937500
9602.943872	1.254653	0.396516	17831.330078
9602.944839	1.220288	0.396516	19011.347656
9602.945703	0.936760	0.396516	19820.708984
9602.946789	0.102103	0.396516	19931.593750
9602.947824	0.090670	0.396516	20025.437500
9602.948702	0.090656	0.396516	20105.033203
9602.949618	0.090659	0.396516	20188.076172
9602.950678	0.090747	0.396516	20284.267578
9602.951626	0.090634	0.396516	20370.187500
9602.952486	0.090681	0.396516	20448.173828
9602.953510	0.090769	0.396516	20541.121094
9602.954543	0.090696	0.396516	20634.810547
9602.955428	0.090659	0.396516	20715.042969
9603.936787	1.272177	0.356607	641.176941
9603.937807	1.717859	0.356607	2393.393066
9603.938703	1.684962	0.356607	3903.119141
9603.939664	1.635190	0.356607	5474.537109
9603.940719	1.581215	0.356607	7142.718750
9603.941651	1.536193	0.356607	8574.450195
9603.942515	1.494514	0.356607	9865.710937
9603.943587	1.446822	0.356607	11416.705078
9603.944595	1.404763	0.356607	12832.706055
9603.945479	1.367765	0.356607	14041.810547
9603.946483	1.328719	0.356607	15375.844727
9603.947531	1.287704	0.356607	16725.359375
9603.948426	1.254298	0.356607	17847.957031
9603.949288	1.222181	0.356607	18901.476562
9603.950383	0.774756	0.356607	19749.833984
9603.951371	0.095420	0.356607	19844.109375
9603.952248	0.090531	0.356607	19923.505859
9603.953234	0.090754	0.356607	20012.990234
9603.954281	0.090641	0.356607	20107.890625
9603.955162	0.090645	0.356607	20187.748047
9603.956024	0.090634	0.356607	20265.875000
9603.957129	0.090754	0.356607	20366.158203
9603.958091	0.090648	0.356607	20453.361328
9603.958956	0.090626	0.356607	20531.753906
9603.959989	0.090769	0.356607	20625.517578
9604.973110	1.315961	0.361804	721.146423
9604.974174	1.716661	0.361804	2547.674072
9604.975075	1.679791	0.361804	4061.166016
9604.975952	1.632045	0.361804	5492.469238
9604.977075	1.577285	0.361804	7263.760254
9604.978040	1.531040	0.361804	8741.213867
9604.978910	1.489680	0.361804	10037.235352
9604.979948	1.443505	0.361804	11535.593750
9604.980986	1.400072	0.361804	12988.868164
9604.981876	1.363129	0.361804	14202.052734
9604.982823	1.325889	0.361804	15457.668945
9604.983883	1.284591	0.361804	16819.335937
9604.984837	1.249512	0.361804	18011.371094
9604.985706	1.218014	0.361804	19069.824219
9604.986790	0.641290	0.361804	19764.982422
9604.987798	0.091776	0.361804	19857.492187
9604.988685	0.090560	0.361804	19937.818359
9604.989660	0.090703	0.361804	20026.253906
9604.990702	0.090663	0.361804	20120.724609
9604.991603	0.090571	0.361804	20202.330078
9604.992460	0.090582	0.361804	20279.958984
9604.993551	0.090677	0.361804	20378.888672
9604.994538	0.090568	0.361804	20468.279297
9604.995410	0.090586	0.361804	20547.269531
9604.996416	0.090688	0.361804	20638.501953
9605.969413	1.237332	0.324046	618.665771
9605.970483	1.716658	0.324046	2455.489502
9605.971417	1.680809	0.324046	4025.365479
9605.972285	1.634597	0.324046	5444.195801
9605.973370	1.580266	0.324046	7158.784668
9605.974370	1.531714	0.324046	8690.498047
9605.975266	1.489676	0.324046	10025.248047
9605.976239	1.446848	0.324046	11433.031250
9605.977284	1.402778	0.324046	12898.934570
9605.978195	1.364542	0.324046	14142.032227
9605.979065	1.328844	0.324046	15298.126953
9605.980147	1.288125	0.324046	16691.878906
9605.981150	1.250929	0.324046	17946.560547
9605.982032	1.219398	0.324046	19022.070312
9605.983045	0.748744	0.324046	19780.546875
9605.984096	0.094204	0.324046	19879.554687
9605.984973	0.090630	0.324046	19959.037109
9605.985830	0.090630	0.324046	20036.707031
9605.986942	0.090641	0.324046	20137.500000
9605.987899	0.090582	0.324046	20224.187500
9605.988763	0.090597	0.324046	20302.462891
9605.989788	0.090762	0.324046	20395.494141
9605.990836	0.090601	0.324046	20490.443359
9605.991727	0.090593	0.324046	20571.162109
9605.992657	0.090568	0.324046	20655.390625
9607.018934	1.197404	0.355117	502.909485
9607.020020	1.715263	0.355117	2365.684570
9607.021022	1.680601	0.355117	4049.646240
9607.021895	1.634502	0.355117	5476.566406
9607.022898	1.583833	0.355117	7065.150879
9607.023960	1.533094	0.355117	8693.296875
9607.024841	1.490456	0.355117	10006.388672
9607.025713	1.449723	0.355117	11270.546875
9607.026813	1.404800	0.355117	12815.826172
9607.027780	1.365015	0.355117	14135.794922
9607.028652	1.330089	0.355117	15295.632812
9607.029698	1.289539	0.355117	16644.490234
9607.030744	1.251211	0.355117	17953.257812
9607.031644	1.219102	0.355117	19050.449219
9607.032576	0.819499	0.355117	19814.222656
9607.033639	0.095951	0.355117	19916.218750
9607.034578	0.090549	0.355117	20001.244141
9607.035445	0.090568	0.355117	20079.765625
9607.036495	0.090740	0.355117	20175.042969
9607.037513	0.090590	0.355117	20267.263672
9607.038400	0.090542	0.355117	20347.574219
9607.039365	0.090663	0.355117	20435.064453
9607.040410	0.090626	0.355117	20529.769531
9607.041328	0.090582	0.355117	20612.923828
9607.042187	0.090590	0.355117	20690.740234
9608.003111	1.307216	0.330246	681.059326
9608.004141	1.717573	0.330246	2450.159668
9608.005031	1.683666	0.330246	3948.622070
9608.005996	1.633623	0.330246	5525.068359
9608.007055	1.579889	0.330246	7198.170898
9608.007979	1.534508	0.330246	8616.056641
9608.008851	1.492346	0.330246	9917.382812
9608.009944	1.444721	0.330246	11496.461914
9608.010933	1.402910	0.330246	12883.940430
9608.011826	1.365916	0.330246	14103.703125
9608.012837	1.326354	0.330246	15444.646484
9608.013880	1.286213	0.330246	16786.167969
9608.014767	1.252811	0.330246	17897.412109
9608.015632	1.220263	0.330246	18952.939453
9608.016728	0.729379	0.330246	19752.337891
9608.017690	0.094669	0.330246	19843.410156
9608.018549	0.090535	0.330246	19921.179687
9608.019612	0.090667	0.330246	20017.558594
9608.020643	0.090619	0.330246	20110.986328
9608.021521	0.090615	0.330246	20190.546875
9608.022425	0.090619	0.330246	20272.466797
9608.023491	0.090677	0.330246	20369.128906
9608.024439	0.090579	0.330246	20454.998047
9608.025309	0.090634	0.330246	20533.849609
9608.026328	0.090663	0.330246	20626.234375
9609.061818	1.190552	0.369856	504.793945
9609.062863	1.714691	0.369856	2296.646240
9609.063897	1.681417	0.369856	4035.231689
9609.064788	1.634158	0.369856	5491.266113
9609.065724	1.586532	0.369856	6976.259766
9609.066792	1.535061	0.369856	8615.705078
9609.067727	1.490511	0.369856	10009.333008
9609.068591	1.451345	0.369856	11263.294922
9609.069653	1.407290	0.369856	12757.836914
9609.070674	1.364839	0.369856	14151.337891
9609.071555	1.329489	0.369856	15322.617187
9609.072538	1.291912	0.369856	16592.566406
9609.073598	1.252584	0.369856	17920.304687
9609.074504	1.219515	0.369856	19025.185547
9609.075373	0.895547	0.369856	19803.416016
9609.076439	0.100378	0.369856	19910.419922
9609.077438	0.090586	0.369856	20000.916016
9609.078330	0.090586	0.369856	20081.718750
9609.079297	0.090754	0.369856	20169.478516
9609.080351	0.090718	0.369856	20265.095703
9609.081256	0.090615	0.369856	20347.101562
9609.082118	0.090754	0.369856	20425.332031
9609.083232	0.090714	0.369856	20526.386719
9609.084196	0.090615	0.369856	20613.740234
9609.085075	0.090615	0.369856	20693.390625
9610.039822	1.277889	0.348865	638.944763
9610.040778	1.717562	0.348865	2280.934326
9610.041644	1.689547	0.348865	3744.082031
9610.042738	1.632396	0.348865	5529.923340
9610.043787	1.579438	0.348865	7186.754395
9610.044680	1.535896	0.348865	8558.309570
9610.045617	1.492064	0.348865	9956.374023
9610.046695	1.443648	0.348865	11512.625977
9610.047638	1.404045	0.348865	12836.640625
9610.048511	1.367490	0.348865	14030.459961
9610.049576	1.325372	0.348865	15441.981445
9610.050593	1.286180	0.348865	16750.027344
9610.051488	1.252972	0.348865	17871.437500
9610.052463	1.218900	0.348865	19059.865234
9610.053508	0.684419	0.348865	19775.083984
9610.054422	0.094332	0.348865	19861.302734
9610.055284	0.090553	0.348865	19939.359375
9610.056374	0.090626	0.348865	20038.142578
9610.057359	0.090553	0.348865	20127.337891
9610.058240	0.090623	0.348865	20207.175781
9610.059253	0.090699	0.348865	20299.054687
9610.060307	0.090586	0.348865	20394.533203
9610.061196	0.090619	0.348865	20475.093750
9610.062055	0.090637	0.348865	20552.951172
9610.063166	0.090692	0.348865	20653.710937
9611.101626	1.188278	0.358964	503.829712
9611.102677	1.715171	0.358964	2306.474121
9611.103712	1.680392	0.358964	4045.679687
9611.104608	1.633326	0.358964	5509.140137
9611.105570	1.585074	0.358964	7033.981445
9611.106638	1.533398	0.358964	8671.650391
9611.107572	1.488435	0.358964	10061.848633
9611.108438	1.449247	0.358964	11316.896484
9611.109521	1.404679	0.358964	12838.164062
9611.110528	1.362781	0.358964	14210.484375
9611.111410	1.327676	0.358964	15381.494141
9611.112409	1.289549	0.358964	16669.753906
9611.113462	1.250658	0.358964	17986.697266
9611.114368	1.218003	0.358964	19090.207031
9611.115236	0.834353	0.358964	19814.425781
9611.116339	0.096453	0.358964	19920.812500
9611.117339	0.090623	0.358964	20011.435547
9611.118214	0.090652	0.358964	20090.755859
9611.119185	0.090688	0.358964	20178.814453
9611.120265	0.090667	0.358964	20276.734375
9611.121135	0.090579	0.358964	20355.537109
9611.122005	0.090688	0.358964	20434.435547
9611.123116	0.090667	0.358964	20535.166016
9611.124084	0.090590	0.358964	20622.857422
9611.124954	0.090557	0.358964	20701.642578
9612.079648	1.280969	0.349469	657.137207
9612.080607	1.717500	0.349469	2304.219727
9612.081470	1.688716	0.349469	3761.581543
9612.082541	1.632437	0.349469	5509.920898
9612.083584	1.579757	0.349469	7157.607422
9612.084481	1.536299	0.349469	8535.666992
9612.085423	1.491899	0.349469	9941.036133
9612.086498	1.444094	0.349469	11493.437500
9612.087438	1.404499	0.349469	12813.666992
9612.088309	1.367857	0.349469	14005.070312
9612.089354	1.326621	0.349469	15391.389648
9612.090374	1.287147	0.349469	16704.279297
9612.091269	1.254247	0.349469	17826.830078
9612.092247	1.220068	0.349469	19020.056641
9612.093304	0.700657	0.349469	19760.650391
9612.094228	0.094504	0.349469	19847.972656
9612.095090	0.090590	0.349469	19926.060547
9612.096164	0.090648	0.349469	20023.416016
9612.097147	0.090604	0.349469	20112.480469
9612.098042	0.090612	0.349469	20193.578125
9612.099048	0.090703	0.349469	20284.826172
9612.100082	0.090670	0.349469	20378.580078
9612.100981	0.090641	0.349469	20460.066406
9612.101839	0.090732	0.349469	20537.914062
9612.102918	0.090707	0.349469	20635.787109
9613.135370	1.235021	0.341477	622.450439
9613.136446	1.715874	0.341477	2468.730957
9613.137379	1.679850	0.341477	4036.030762
9613.138246	1.633528	0.341477	5452.299316
9613.139327	1.579479	0.341477	7159.715820
9613.140339	1.530751	0.341477	8708.835937
9613.141232	1.488640	0.341477	10038.191406
9613.142215	1.445387	0.341477	11459.006836
9613.143264	1.401365	0.341477	12929.038086
9613.144177	1.362817	0.341477	14173.290039
9613.145044	1.327277	0.341477	15324.039062
9613.146140	1.286429	0.341477	16733.964844
9613.147144	1.249167	0.341477	17988.128906
9613.148026	1.217915	0.341477	19062.330078
9613.149039	0.701342	0.341477	19772.789062
9613.150077	0.093069	0.341477	19869.394531
9613.150956	0.090619	0.341477	19949.048828
9613.151840	0.090623	0.341477	20029.158203
9613.152936	0.090714	0.341477	20128.580078
9613.153880	0.090491	0.341477	20214.003906
9613.154738	0.090648	0.341477	20291.779297
9613.155742	0.090696	0.341477	20382.837891
9613.156785	0.090641	0.341477	20477.376953
9613.157671	0.090549	0.341477	20557.603516
9613.158596	0.090725	0.341477	20641.523437
9614.121405	1.196136	0.337707	510.750275
9614.122448	1.714720	0.337707	2299.203613
9614.123476	1.681329	0.337707	4027.610352
9614.124357	1.634656	0.337707	5467.742187
9614.125322	1.585455	0.337707	6997.706543
9614.126407	1.533629	0.337707	8661.694336
9614.127318	1.489805	0.337707	10018.906250
9614.128191	1.450052	0.337707	11284.801758
9614.129249	1.405774	0.337707	12772.110352
9614.130252	1.364147	0.337707	14140.349609
9614.131150	1.328686	0.337707	15333.509766
9614.132133	1.290923	0.337707	16602.486328
9614.133201	1.251552	0.337707	17939.142578
9614.134106	1.218849	0.337707	19042.201172
9614.134975	0.855586	0.337707	19785.705078
9614.136073	0.096716	0.337707	19891.900391
9614.137049	0.090579	0.337707	19980.304687
9614.137912	0.090560	0.337707	20058.458984
9614.139034	0.090659	0.337707	20160.177734
9614.140072	0.090579	0.337707	20254.199219
9614.140965	0.090557	0.337707	20335.066406
9614.141896	0.090615	0.337707	20419.429687
9614.142933	0.090601	0.337707	20513.382812
9614.143869	0.090575	0.337707	20598.160156
9614.144728	0.090582	0.337707	20675.970703
9615.172171	1.340881	0.330105	764.302368
9615.173219	1.716394	0.330105	2563.083252
9615.174109	1.679960	0.330105	4058.247559
9615.175002	1.631704	0.330105	5515.359375
9615.176100	1.577402	0.330105	7247.347168
9615.177062	1.531157	0.330105	8720.320312
9615.177933	1.489973	0.330105	10018.086914
9615.178994	1.442911	0.330105	11549.015625
9615.180023	1.399709	0.330105	12989.316406
9615.180916	1.362759	0.330105	14206.259766
9615.181873	1.325471	0.330105	15474.735352
9615.182935	1.284005	0.330105	16838.349609
9615.183867	1.249614	0.330105	18002.990234
9615.184736	1.218091	0.330105	19061.511719
9615.185833	0.637474	0.330105	19760.820312
9615.186833	0.091802	0.330105	19852.623047
9615.187715	0.090568	0.330105	19932.503906
9615.188706	0.090714	0.330105	20022.402344
9615.189757	0.090593	0.330105	20117.615234
9615.190651	0.090634	0.330105	20198.642578
9615.191507	0.090656	0.330105	20276.244141
9615.192604	0.090729	0.330105	20375.773437
9615.193600	0.090615	0.330105	20466.025391
9615.194476	0.090542	0.330105	20545.339844
9615.195478	0.090637	0.330105	20636.158203
9616.164286	1.191207	0.335785	505.071899
9616.165322	1.712007	0.335785	2278.710937
9616.166368	1.680828	0.335785	4036.856445
9616.167261	1.633044	0.335785	5495.165039
9616.168123	1.587129	0.335785	6863.270020
9616.169238	1.535394	0.335785	8575.234375
9616.170195	1.490497	0.335785	10001.639648
9616.171062	1.451206	0.335785	11259.834961
9616.172152	1.405572	0.335785	12791.909180
9616.173200	1.362594	0.335785	14219.907227
9616.174077	1.326921	0.335785	15383.617187
9616.174993	1.290861	0.335785	16566.044922
9616.176066	1.251819	0.335785	17909.246094
9616.177004	1.218226	0.335785	19051.941406
9616.177884	0.874742	0.335785	19821.714844
9616.178920	0.099034	0.335785	19924.314453
9616.179943	0.090623	0.335785	20017.021484
9616.180831	0.090656	0.335785	20097.523437
9616.181775	0.090692	0.335785	20183.136719
9616.182833	0.090688	0.335785	20279.085937
9616.183766	0.090677	0.335785	20363.687500
9616.184630	0.090590	0.335785	20441.957031
9616.185711	0.090780	0.335785	20540.089844
9616.186714	0.090630	0.335785	20630.992187
9616.187601	0.090615	0.335785	20711.367187
9617.204660	1.203226	0.360624	505.355072
9617.205762	1.715863	0.360624	2396.236084
9617.206732	1.681091	0.360624	4026.894531
9617.207600	1.635253	0.360624	5446.293945
9617.208680	1.580394	0.360624	7153.119629
9617.209726	1.530652	0.360624	8754.181641
9617.210618	1.487849	0.360624	10081.342773
9617.211527	1.446918	0.360624	11396.590820
9617.212616	1.401724	0.360624	12923.068359
9617.213569	1.362393	0.360624	14221.428711
9617.214436	1.327116	0.360624	15372.038086
9617.215504	1.286667	0.360624	16746.199219
9617.216517	1.249098	0.360624	18011.535156
9617.217408	1.217681	0.360624	19096.488281
9617.218396	0.724838	0.360624	19812.626953
9617.219435	0.093680	0.360624	19909.960937
9617.220349	0.090535	0.360624	19992.708984
9617.221208	0.090619	0.360624	20070.550781
9617.222286	0.090765	0.360624	20168.396484
9617.223282	0.090615	0.360624	20258.648437
9617.224151	0.090608	0.360624	20337.386719
9617.225127	0.090758	0.360624	20425.966797
9617.226208	0.090630	0.360624	20523.937500
9617.227097	0.090571	0.360624	20604.455078
9617.227960	0.090623	0.360624	20682.662109
9618.206238	1.290370	0.364080	661.959717
9618.207128	1.716489	0.364080	2189.635254
9618.208024	1.688969	0.364080	3702.951172
9618.209109	1.633795	0.364080	5475.619141
9618.210062	1.585331	0.364080	6986.439453
9618.210927	1.542872	0.364080	8321.024414
9618.211995	1.493090	0.364080	9915.644531
9618.213022	1.446815	0.364080	11401.523437
9618.213913	1.409271	0.364080	12657.183594
9618.214866	1.369999	0.364080	13962.792969
9618.215920	1.327753	0.364080	15362.244141
9618.216851	1.291395	0.364080	16564.533203
9618.217712	1.258814	0.364080	17648.371094
9618.218766	1.221409	0.364080	18935.736328
9618.219787	0.814541	0.364080	19767.382812
9618.220675	0.102341	0.364080	19858.261719
9618.221645	0.090619	0.364080	19946.162109
9618.222706	0.090699	0.364080	20042.394531
9618.223617	0.090579	0.364080	20124.912109
9618.224491	0.090656	0.364080	20204.144531
9618.225571	0.090725	0.364080	20302.126953
9618.226550	0.090612	0.364080	20390.835937
9618.227445	0.090623	0.364080	20471.943359
9618.228412	0.090670	0.364080	20559.621094
9618.229471	0.090692	0.364080	20655.664062
9619.243460	1.203087	0.368189	523.342896
9619.244325	1.711190	0.368189	2003.522461
9619.245409	1.685885	0.368189	3831.021729
9619.246419	1.633103	0.368189	5480.456055
9619.247317	1.587693	0.368189	6906.204102
9619.248313	1.539851	0.368189	8439.895508
9619.249380	1.489574	0.368189	10029.270508
9619.250286	1.448416	0.368189	11341.535156
9619.251155	1.410168	0.368189	12566.971680
9619.252270	1.365648	0.368189	14089.668945
9619.253245	1.327112	0.368189	15383.603516
9619.254118	1.292952	0.368189	16512.349609
9619.255170	1.254232	0.368189	17831.802734
9619.256204	1.217607	0.368189	19090.808594
9619.257098	0.830504	0.368189	19833.279297
9619.258030	0.105322	0.368189	19931.439453
9619.259081	0.090740	0.368189	20026.806641
9619.260025	0.090707	0.368189	20112.433594
9619.260885	0.090703	0.368189	20190.437500
9619.261952	0.090688	0.368189	20287.201172
9619.262970	0.090648	0.368189	20379.480469
9619.263846	0.090579	0.368189	20458.828125
9619.264803	0.090692	0.368189	20545.621094
9619.265876	0.090696	0.368189	20642.937500
9619.266780	0.090590	0.368189	20724.830078
9620.246972	1.194785	0.370807	508.978516
9620.247902	1.710018	0.370807	2099.295654
9620.248989	1.682904	0.370807	3928.612305
9620.249943	1.633345	0.370807	5486.823242
9620.250815	1.588147	0.370807	6871.687500
9620.251890	1.536562	0.370807	8523.492187
9620.252909	1.488549	0.370807	10040.323242
9620.253803	1.448536	0.370807	11335.314453
9620.254789	1.407642	0.370807	12723.249023
9620.255842	1.363652	0.370807	14159.174805
9620.256753	1.327229	0.370807	15368.280273
9620.257615	1.292736	0.370807	16482.619141
9620.258698	1.254108	0.370807	17840.818359
9620.259692	1.218138	0.370807	19051.648437
9620.260582	0.873248	0.370807	19828.839844
9620.261592	0.107040	0.370807	19936.949219
9620.262642	0.090582	0.370807	20032.060547
9620.263522	0.090590	0.370807	20111.779297
9620.264377	0.090634	0.370807	20189.271484
9620.265475	0.090601	0.370807	20288.750000
9620.266444	0.090626	0.370807	20376.566406
9620.267317	0.090604	0.370807	20455.664062
9620.268378	0.090747	0.370807	20551.947266
9620.269418	0.090568	0.370807	20646.136719
9620.270307	0.090677	0.370807	20726.748047
9621.281334	1.268884	0.372954	694.079712
9621.282388	1.715706	0.372954	2502.433350
9621.283290	1.679854	0.372954	4017.661133
9621.284163	1.633066	0.372954	5443.328125
9621.285225	1.579838	0.372954	7121.115723
9621.286226	1.531469	0.372954	8654.115234
9621.287119	1.489717	0.372954	9984.432617
9621.288102	1.446303	0.372954	11406.148437
9621.289167	1.401639	0.372954	12898.894531
9621.290077	1.363484	0.372954	14139.665039
9621.290945	1.327130	0.372954	15291.614258
9621.292079	1.285247	0.372954	16749.083984
9621.293049	1.249867	0.372954	17961.455078
9621.293926	1.218505	0.372954	19030.083984
9621.294995	0.661794	0.372954	19737.542969
9621.296028	0.091893	0.372954	19832.468750
9621.296924	0.090560	0.372954	19913.611328
9621.297872	0.090652	0.372954	19999.548828
9621.298912	0.090641	0.372954	20093.814453
9621.299843	0.090538	0.372954	20178.105469
9621.300702	0.090630	0.372954	20255.957031
9621.301742	0.090725	0.372954	20350.310547
9621.302761	0.090601	0.372954	20442.632812
9621.303639	0.090670	0.372954	20522.242187
9621.304618	0.090696	0.372954	20611.033203
9622.285842	1.272587	0.374457	640.111084
9622.286725	1.716112	0.374457	2155.437988
9622.287621	1.689280	0.374457	3669.032715
9622.288732	1.633081	0.374457	5483.385742
9622.289688	1.584470	0.374457	6998.139160
9622.290560	1.541792	0.374457	8342.582031
9622.291620	1.492038	0.374457	9924.142578
9622.292649	1.446277	0.374457	11412.361328
9622.293541	1.408451	0.374457	12668.699219
9622.294500	1.369362	0.374457	13981.916992
9622.295552	1.326969	0.374457	15377.888672
9622.296489	1.290527	0.374457	16587.113281
9622.297357	1.257554	0.374457	17678.669922
9622.298447	1.219541	0.374457	19007.968750
9622.299456	0.763927	0.374457	19778.771484
9622.300334	0.099338	0.374457	19865.990234
9622.301337	0.090615	0.374457	19956.876953
9622.302383	0.090637	0.374457	20051.683594
9622.303274	0.090527	0.374457	20132.343750
9622.304129	0.090553	0.374457	20209.765625
9622.305214	0.090586	0.374457	20308.050781
9622.306201	0.090505	0.374457	20397.378906
9622.307078	0.090634	0.374457	20476.865234
9622.308064	0.090597	0.374457	20566.193359
9622.309110	0.090630	0.374457	20660.992187
9623.319999	1.190581	0.366227	507.187500
9623.320935	1.709854	0.366227	2107.610352
9623.322023	1.682882	0.366227	3938.585937
9623.322961	1.633865	0.366227	5471.151367
9623.323825	1.588689	0.366227	6843.778809
9623.324874	1.537961	0.366227	8457.100586
9623.325905	1.489468	0.366227	9992.742187
9623.326797	1.449756	0.366227	11285.924805
9623.327775	1.408927	0.366227	12663.855469
9623.328840	1.364604	0.366227	14117.159180
9623.329755	1.328060	0.366227	15332.333984
9623.330629	1.293149	0.366227	16462.546875
9623.331715	1.253694	0.366227	17824.058594
9623.332718	1.218058	0.366227	19045.771484
9623.333616	0.862108	0.366227	19819.945312
9623.334602	0.104319	0.366227	19922.802734
9623.335647	0.090677	0.366227	20017.560547
9623.336544	0.090553	0.366227	20098.787109
9623.337404	0.090663	0.366227	20176.757812
9623.338505	0.090817	0.366227	20276.746094
9623.339478	0.090601	0.366227	20364.900391
9623.340340	0.090630	0.366227	20443.023437
9623.341417	0.090773	0.366227	20540.785156
9623.342452	0.090674	0.366227	20634.632812
9623.343334	0.090634	0.366227	20714.572266
9624.325637	1.255441	0.369816	623.954041
9624.326510	1.715160	0.369816	2121.288574
9624.327417	1.690122	0.369816	3654.229492
9624.328501	1.634927	0.369816	5426.490234
9624.329461	1.585942	0.369816	6948.995117
9624.330330	1.543433	0.369816	8290.238281
9624.331375	1.494262	0.369816	9851.741211
9624.332408	1.448361	0.369816	11347.897461
9624.333305	1.410172	0.369816	12612.822266
9624.334268	1.370782	0.369816	13932.885742
9624.335336	1.327698	0.369816	15350.867187
9624.336268	1.291494	0.369816	16554.539062
9624.337134	1.258586	0.369816	17644.474609
9624.338229	1.220186	0.369816	18980.578125
9624.339239	0.789218	0.369816	19777.687500
9624.340138	0.099130	0.369816	19866.804687
9624.341130	0.090751	0.369816	19956.830078
9624.342183	0.090696	0.369816	20052.332031
9624.343083	0.090634	0.369816	20133.902344
9624.343945	0.090765	0.369816	20212.142578
9624.345041	0.090707	0.369816	20311.556641
9624.346016	0.090656	0.369816	20399.945312
9624.346883	0.090641	0.369816	20478.531250
9624.347896	0.090721	0.369816	20570.431641
9624.348956	0.090732	0.369816	20666.607422
9625.356742	1.203296	0.370413	519.823792
9625.357773	1.711952	0.370413	2284.846191
9625.358829	1.680359	0.370413	4059.305176
9625.359707	1.633121	0.370413	5493.185547
9625.360580	1.586799	0.370413	6878.461426
9625.361682	1.535497	0.370413	8570.579102
9625.362649	1.489867	0.370413	10011.280273
9625.363513	1.451023	0.370413	11264.963867
9625.364576	1.406858	0.370413	12760.454102
9625.365624	1.363509	0.370413	14189.412109
9625.366497	1.327793	0.370413	15348.575195
9625.367456	1.290886	0.370413	16586.535156
9625.368524	1.251332	0.370413	17922.957031
9625.369458	1.218098	0.370413	19060.660156
9625.370335	0.869784	0.370413	19823.460937
9625.371376	0.098584	0.370413	19926.085937
9625.372388	0.090674	0.370413	20017.847656
9625.373275	0.090688	0.370413	20098.289062
9625.374234	0.090710	0.370413	20185.281250
9625.375290	0.090707	0.370413	20281.068359
9625.376222	0.090641	0.370413	20365.544922
9625.377085	0.090699	0.370413	20443.818359
9625.378168	0.090861	0.370413	20542.220703
9625.379162	0.090648	0.370413	20632.324219
9625.380058	0.090641	0.370413	20713.539062
9626.363323	1.189065	0.370864	502.974487
9626.364348	1.711798	0.370864	2257.567383
9626.365409	1.680754	0.370864	4040.847656
9626.366286	1.633557	0.370864	5473.477051
9626.367176	1.586671	0.370864	6885.614258
9626.368278	1.535098	0.370864	8577.291992
9626.369233	1.490310	0.370864	10000.538086
9626.370093	1.451140	0.370864	11248.518555
9626.371119	1.407444	0.370864	12692.555664
9626.372173	1.364385	0.370864	14130.617187
9626.373068	1.328474	0.370864	15319.601562
9626.374015	1.292076	0.370864	16543.197266
9626.375074	1.252610	0.370864	17869.710937
9626.376002	1.219662	0.370864	19001.556641
9626.376880	0.908646	0.370864	19799.347656
9626.377959	0.099225	0.370864	19906.412109
9626.378973	0.090502	0.370864	19998.181641
9626.379858	0.090615	0.370864	20078.376953
9626.380830	0.090780	0.370864	20166.615234
9626.381873	0.090692	0.370864	20261.207031
9626.382796	0.090579	0.370864	20344.810547
9626.383657	0.090699	0.370864	20422.902344
9626.384738	0.090710	0.370864	20520.960937
9626.385729	0.090542	0.370864	20610.687500
9626.386614	0.090714	0.370864	20690.968750
9627.394593	1.290128	0.378099	664.415955
9627.395589	1.717039	0.378099	2374.586426
9627.396484	1.684611	0.378099	3882.312988
9627.397476	1.633359	0.378099	5502.605469
9627.398530	1.579845	0.378099	7167.762207
9627.399430	1.535574	0.378099	8549.778320
9627.400294	1.493123	0.378099	9839.835937
9627.401401	1.445764	0.378099	11440.296875
9627.402367	1.404478	0.378099	12797.022461
9627.403251	1.368164	0.378099	14006.479492
9627.404265	1.328141	0.378099	15353.214844
9627.405319	1.287916	0.378099	16710.677734
9627.406207	1.254250	0.378099	17824.453125
9627.407097	1.221240	0.378099	18911.357422
9627.408221	0.730283	0.378099	19732.195312
9627.409151	0.095237	0.378099	19820.765625
9627.410022	0.090582	0.378099	19899.662109
9627.411042	0.090677	0.378099	19992.152344
9627.412083	0.090641	0.378099	20086.509766
9627.412972	0.090634	0.378099	20167.082031
9627.413915	0.090725	0.378099	20252.636719
9627.414972	0.090780	0.378099	20348.591797
9627.415900	0.090656	0.378099	20432.720703
9627.416771	0.090648	0.378099	20511.675781
9627.417838	0.090747	0.378099	20608.501953
9628.403133	1.187468	0.370791	502.299042
9628.404144	1.711769	0.370791	2232.897217
9628.405204	1.681458	0.370791	4015.242187
9628.406087	1.634128	0.370791	5458.177734
9628.406977	1.587257	0.370791	6870.836426
9628.408081	1.535511	0.370791	8566.041016
9628.409028	1.490456	0.370791	9977.502930
9628.409895	1.451492	0.370791	11235.946289
9628.410944	1.407535	0.370791	12712.451172
9628.411991	1.364348	0.370791	14140.923828
9628.412866	1.329089	0.370791	15303.876953
9628.413820	1.292183	0.370791	16536.619141
9628.414898	1.252218	0.370791	17886.509766
9628.415834	1.218966	0.370791	19027.460937
9628.416713	0.888864	0.370791	19808.771484
9628.417759	0.099774	0.370791	19913.134766
9628.418767	0.090677	0.370791	20004.537109
9628.419656	0.090773	0.370791	20085.234375
9628.420622	0.090773	0.370791	20172.919922
9628.421669	0.090754	0.370791	20267.939453
9628.422594	0.090714	0.370791	20351.849609
9628.423459	0.090692	0.370791	20430.298828
9628.424540	0.090787	0.370791	20528.439453
9628.425526	0.090623	0.370791	20617.792969
9628.426415	0.090667	0.370791	20698.394531
9629.433276	1.198748	0.379464	509.467743
9629.434345	1.715043	0.379464	2342.848389
9629.435346	1.680066	0.379464	4024.594482
9629.436242	1.633356	0.379464	5488.081055
9629.437208	1.584492	0.379464	7018.700684
9629.438260	1.533387	0.379464	8631.824219
9629.439182	1.489735	0.379464	10005.360352
9629.440050	1.449705	0.379464	11263.704102
9629.441140	1.404877	0.379464	12795.019531
9629.442138	1.363535	0.379464	14155.828125
9629.443027	1.328419	0.379464	15336.792969
9629.444040	1.289451	0.379464	16643.005859
9629.445094	1.251097	0.379464	17961.662109
9629.445979	1.218743	0.379464	19040.250000
9629.446867	0.829471	0.379464	19776.820312
9629.447968	0.096544	0.379464	19883.115234
9629.448914	0.090641	0.379464	19968.861328
9629.449771	0.090575	0.379464	20046.484375
9629.450790	0.090773	0.379464	20138.982422
9629.451840	0.090670	0.379464	20234.185547
9629.452713	0.090663	0.379464	20313.333984
9629.453636	0.090670	0.379464	20397.023437
9629.454697	0.090652	0.379464	20493.205078
9629.455653	0.090623	0.379464	20579.839844
9629.456520	0.090623	0.379464	20658.410156
9630.439860	1.188596	0.369623	499.210388
9630.440939	1.714860	0.369623	2349.543945
9630.441952	1.679290	0.369623	4050.664307
9630.442848	1.632374	0.369623	5513.271484
9630.443836	1.583035	0.369623	7077.309570
9630.444882	1.532241	0.369623	8680.034180
9630.445795	1.488655	0.369623	10039.175781
9630.446660	1.448452	0.369623	11292.086914
9630.447762	1.403910	0.369623	12839.195312
9630.448720	1.363960	0.369623	14145.869141
9630.449597	1.329119	0.369623	15311.505859
9630.450622	1.289835	0.369623	16633.585937
9630.451666	1.251771	0.369623	17940.435547
9630.452550	1.219431	0.369623	19018.412109
9630.453430	0.848192	0.369623	19764.820312
9630.454530	0.098177	0.369623	19872.816406
9630.455469	0.090626	0.369623	19957.914062
9630.456340	0.090677	0.369623	20036.894531
9630.457345	0.090784	0.369623	20128.132812
9630.458379	0.090626	0.369623	20221.839844
9630.459266	0.090696	0.369623	20302.287109
9630.460178	0.090776	0.369623	20385.074219
9630.461260	0.090776	0.369623	20483.294922
9630.462214	0.090626	0.369623	20569.751953
9630.463079	0.090656	0.369623	20648.169922
9631.471111	1.265248	0.396335	633.889160
9631.472055	1.716200	0.396335	2253.981934
9631.472923	1.689382	0.396335	3720.365723
9631.473963	1.634989	0.396335	5420.754395
9631.474996	1.582998	0.396335	7055.991211
9631.475893	1.539024	0.396335	8436.495117
9631.476849	1.494613	0.396335	9865.345703
9631.477912	1.446475	0.396335	11402.948242
9631.478856	1.406657	0.396335	12730.832031
9631.479721	1.370208	0.396335	13916.061523
9631.480789	1.328441	0.396335	15334.836914
9631.481797	1.289176	0.396335	16634.326172
9631.482684	1.256250	0.396335	17748.619141
9631.483660	1.221866	0.396335	18941.160156
9631.484714	0.781721	0.396335	19765.093750
9631.485617	0.099397	0.396335	19854.849609
9631.486473	0.090601	0.396335	19932.404297
9631.487573	0.090718	0.396335	20032.193359
9631.488570	0.090593	0.396335	20122.515625
9631.489439	0.090670	0.396335	20201.308594
9631.490430	0.090721	0.396335	20291.212891
9631.491492	0.090696	0.396335	20387.531250
9631.492379	0.090656	0.396335	20467.943359
9631.493244	0.090688	0.396335	20546.388672
9631.494352	0.090736	0.396335	20646.923828
9632.476651	1.217937	0.350654	578.520081
9632.477733	1.715358	0.350654	2434.537109
9632.478692	1.679282	0.350654	4044.968750
9632.479562	1.633206	0.350654	5465.857422
9632.480628	1.579343	0.350654	7149.437500
9632.481656	1.530443	0.350654	8722.733398
9632.482550	1.487505	0.350654	10052.562500
9632.483531	1.445112	0.350654	11470.217773
9632.484588	1.400076	0.350654	12950.097656
9632.485507	1.361884	0.350654	14201.668945
9632.486374	1.326511	0.350654	15351.753906
9632.487462	1.285679	0.350654	16750.572266
9632.488461	1.248636	0.350654	17997.960937
9632.489339	1.217472	0.350654	19066.902344
9632.490343	0.709274	0.350654	19779.013672
9632.491396	0.093197	0.350654	19877.150391
9632.492287	0.090641	0.350654	19957.912109
9632.493143	0.090736	0.350654	20035.582031
9632.494240	0.090835	0.350654	20135.228516
9632.495203	0.090604	0.350654	20222.480469
9632.496066	0.090725	0.350654	20300.775391
9632.497150	0.090729	0.350654	20399.125000
9632.498188	0.090670	0.350654	20493.240234
9632.499079	0.090667	0.350654	20574.023437
9632.499999	0.090703	0.350654	20657.470703
9633.514000	1.270009	0.365494	628.654236
9633.514990	1.716621	0.365494	2328.109131
9633.515877	1.685933	0.365494	3823.531250
9633.516855	1.635260	0.365494	5422.815430
9633.517916	1.581130	0.365494	7100.394531
9633.518828	1.536936	0.365494	8502.080078
9633.519696	1.493998	0.365494	9798.870117
9633.520816	1.445453	0.365494	11417.777344
9633.521792	1.404811	0.365494	12788.873047
9633.522664	1.368534	0.365494	13982.234375
9633.523738	1.325574	0.365494	15405.900391
9633.524788	1.285543	0.365494	16755.720703
9633.525688	1.252105	0.365494	17882.615234
9633.526633	1.218772	0.365494	19034.355469
9633.527697	0.673180	0.365494	19750.619141
9633.528641	0.093314	0.365494	19838.707031
9633.529502	0.090615	0.365494	19916.726562
9633.530557	0.090696	0.365494	20012.410156
9633.531578	0.090641	0.365494	20104.955078
9633.532459	0.090659	0.365494	20184.826172
9633.533434	0.090663	0.365494	20273.222656
9633.534474	0.090740	0.365494	20367.591797
9633.535386	0.090659	0.365494	20450.273437
9633.536243	0.090780	0.365494	20528.072266
9633.537319	0.090765	0.365494	20625.736328
9634.508238	1.225466	0.320683	544.106995
9634.509118	1.712889	0.320683	2051.449707
9634.510121	1.689228	0.320683	3745.745850
9634.511158	1.635161	0.320683	5441.407715
9634.512065	1.588337	0.320683	6882.029785
9634.512931	1.543934	0.320683	8219.077148
9634.514052	1.493606	0.320683	9893.409180
9634.515018	1.449950	0.320683	11294.060547
9634.515882	1.413029	0.320683	12514.916992
9634.516966	1.368626	0.320683	13998.506836
9634.518004	1.327423	0.320683	15376.372070
9634.518889	1.292380	0.320683	16520.128906
9634.519829	1.257913	0.320683	17702.566406
9634.520898	1.219655	0.320683	19006.376953
9634.521843	0.857681	0.320683	19816.884766
9634.522699	0.108589	0.320683	19909.835937
9634.523744	0.090714	0.320683	20004.632812
9634.524749	0.090696	0.320683	20095.781250
9634.525642	0.090645	0.320683	20176.726562
9634.526598	0.090729	0.320683	20263.462891
9634.527663	0.090696	0.320683	20360.054687
9634.528595	0.090685	0.320683	20444.572266
9634.529460	0.090677	0.320683	20523.007812
9634.530536	0.090707	0.320683	20620.607422
9634.531546	0.090601	0.320683	20712.113281
9635.554778	1.233999	0.338335	562.703552
9635.555649	1.712981	0.338335	2054.709961
9635.556648	1.688804	0.338335	3741.824707
9635.557708	1.633722	0.338335	5473.569824
9635.558610	1.587081	0.338335	6905.117187
9635.559478	1.543158	0.338335	8244.578125
9635.560590	1.492167	0.338335	9903.867187
9635.561568	1.448738	0.338335	11320.732422
9635.562439	1.411967	0.338335	12550.555664
9635.563515	1.367424	0.338335	14021.904297
9635.564556	1.326215	0.338335	15402.494141
9635.565450	1.291289	0.338335	16556.906250
9635.566386	1.256858	0.338335	17733.324219
9635.567452	1.218706	0.338335	19032.464844
9635.568416	0.803229	0.338335	19806.777344
9635.569279	0.102642	0.338335	19895.357422
9635.570339	0.090699	0.338335	19991.498047
9635.571360	0.090656	0.338335	20084.056641
9635.572250	0.090648	0.338335	20164.734375
9635.573211	0.090699	0.338335	20251.896484
9635.574254	0.090667	0.338335	20346.460937
9635.575172	0.090645	0.338335	20429.671875
9635.576034	0.090670	0.338335	20507.830078
9635.577102	0.090718	0.338335	20604.716797
9635.578107	0.090612	0.338335	20695.781250
9636.539958	1.312493	0.316586	720.558472
9636.541013	1.715760	0.316586	2530.685791
9636.541914	1.679440	0.316586	4043.860840
9636.542786	1.631719	0.316586	5466.719727
9636.543916	1.576685	0.316586	7248.373047
9636.544881	1.530381	0.316586	8725.190430
9636.545747	1.489259	0.316586	10014.888672
9636.546800	1.442812	0.316586	11534.169922
9636.547826	1.400076	0.316586	12970.647461
9636.548715	1.362909	0.316586	14182.273437
9636.549659	1.325566	0.316586	15433.608398
9636.550722	1.284580	0.316586	16799.117187
9636.551653	1.250226	0.316586	17963.078125
9636.552518	1.219069	0.316586	19017.572266
9636.553599	0.715756	0.316586	19791.304687
9636.554618	0.093354	0.316586	19886.433594
9636.555494	0.090685	0.316586	19965.873047
9636.556462	0.090751	0.316586	20053.720703
9636.557520	0.090681	0.316586	20149.662109
9636.558421	0.090608	0.316586	20231.300781
9636.559290	0.090645	0.316586	20310.070312
9636.560355	0.090795	0.316586	20406.767578
9636.561348	0.090637	0.316586	20496.769531
9636.562242	0.090707	0.316586	20577.861328
9636.563223	0.090714	0.316586	20666.851562
9637.596732	1.317623	0.290777	711.516541
9637.597764	1.716269	0.290777	2482.706543
9637.598652	1.681428	0.290777	3975.814941
9637.599623	1.631766	0.290777	5560.259766
9637.600682	1.577479	0.290777	7230.810547
9637.601612	1.532490	0.290777	8656.026367
9637.602480	1.490585	0.290777	9949.853516
9637.603569	1.443560	0.290777	11521.889648
9637.604577	1.400856	0.290777	12933.952148
9637.605458	1.364114	0.290777	14135.736328
9637.606440	1.325189	0.290777	15437.072266
9637.607520	1.284082	0.290777	16823.880859
9637.608404	1.251057	0.290777	17929.816406
9637.609276	1.218362	0.290777	18992.228516
9637.610386	0.664233	0.290777	19729.527344
9637.611359	0.092596	0.290777	19819.623047
9637.612225	0.090637	0.290777	19898.115234
9637.613295	0.090780	0.290777	19995.250000
9637.614337	0.090696	0.290777	20089.755859
9637.615224	0.090667	0.290777	20170.177734
9637.616154	0.090721	0.290777	20254.548828
9637.617221	0.090740	0.290777	20351.367187
9637.618167	0.090619	0.290777	20437.091797
9637.619028	0.090670	0.290777	20515.158203
9637.620080	0.090736	0.290777	20610.613281
9638.574544	1.228385	0.315361	539.260986
9638.575425	1.712798	0.315361	2048.235840
9638.576426	1.688774	0.315361	3738.698975
9638.577484	1.634106	0.315361	5467.583496
9638.578385	1.587338	0.315361	6897.774902
9638.579250	1.543326	0.315361	8232.751953
9638.580361	1.492800	0.315361	9891.252930
9638.581319	1.450173	0.315361	11280.518555
9638.582185	1.413281	0.315361	12504.419922
9638.583223	1.370684	0.315361	13927.189453
9638.584254	1.329591	0.315361	15297.998047
9638.585139	1.294603	0.315361	16443.722656
9638.586073	1.260007	0.315361	17620.570312
9638.587155	1.221541	0.315361	18942.277344
9638.588094	0.911700	0.315361	19798.363281
9638.588956	0.116792	0.315361	19899.037109
9638.590005	0.090659	0.315361	19994.138672
9638.591031	0.090699	0.315361	20087.197266
9638.591896	0.090630	0.315361	20165.591797
9638.592850	0.090773	0.315361	20252.189453
9638.593909	0.090699	0.315361	20348.240234
9638.594826	0.090663	0.315361	20431.378906
9638.595692	0.090718	0.315361	20509.941406
9638.596743	0.090729	0.315361	20605.296875
9638.597751	0.090714	0.315361	20696.736328
9639.634402	1.249299	0.272702	570.929749
9639.635276	1.713365	0.272702	2068.411133
9639.636288	1.687972	0.272702	3776.639160
9639.637349	1.633250	0.272702	5509.516602
9639.638243	1.586671	0.272702	6928.000488
9639.639107	1.542792	0.272702	8260.972656
9639.640210	1.492815	0.272702	9907.547852
9639.641171	1.449419	0.272702	11300.439453
9639.642031	1.412816	0.272702	12515.460937
9639.643094	1.368486	0.272702	13970.162109
9639.644151	1.327222	0.272702	15373.035156
9639.645038	1.292168	0.272702	16519.187500
9639.645972	1.257528	0.272702	17693.718750
9639.647040	1.219504	0.272702	18996.150391
9639.647991	0.849672	0.272702	19804.187500
9639.648856	0.106783	0.272702	19896.554687
9639.649919	0.090725	0.272702	19992.996094
9639.650931	0.090597	0.272702	20084.679687
9639.651821	0.090608	0.272702	20165.320312
9639.652787	0.090656	0.272702	20252.892578
9639.653841	0.090681	0.272702	20348.470703
9639.654764	0.090601	0.272702	20432.095703
9639.655627	0.090648	0.272702	20510.324219
9639.656699	0.090795	0.272702	20607.656250
9639.657694	0.090608	0.272702	20697.810547
9640.612280	1.202618	0.313061	506.302368
9640.613378	1.714519	0.313061	2388.844238
9640.614375	1.678000	0.313061	4061.810547
9640.615278	1.631455	0.313061	5535.014648
9640.616279	1.580691	0.313061	7117.286133
9640.617344	1.529681	0.313061	8746.396484
9640.618242	1.486868	0.313061	10081.603516
9640.619160	1.445940	0.313061	11408.976562
9640.620245	1.400790	0.313061	12928.833008
9640.621195	1.361583	0.313061	14222.336914
9640.622062	1.326793	0.313061	15372.666992
9640.623111	1.286638	0.313061	16722.351562
9640.624132	1.249028	0.313061	17997.609375
9640.625024	1.217227	0.313061	19083.375000
9640.625987	0.765604	0.313061	19820.652344
9640.627038	0.094662	0.313061	19920.142578
9640.627955	0.090608	0.313061	20003.230469
9640.628813	0.090590	0.313061	20080.957031
9640.629869	0.090656	0.313061	20176.689453
9640.630873	0.090564	0.313061	20267.615234
9640.631742	0.090601	0.313061	20346.347656
9640.632722	0.090743	0.313061	20435.275391
9640.633764	0.090579	0.313061	20529.658203
9640.634666	0.090549	0.313061	20611.333984
9640.635532	0.090663	0.313061	20689.847656
9641.672124	1.204603	0.269209	511.956421
9641.673217	1.714834	0.269209	2386.270020
9641.674214	1.678374	0.269209	4059.608887
9641.675117	1.631235	0.269209	5532.614258
9641.676115	1.581420	0.269209	7110.871094
9641.677159	1.531392	0.269209	8709.643555
9641.678061	1.488186	0.269209	10051.987305
9641.678930	1.447782	0.269209	11310.109375
9641.680026	1.403159	0.269209	12847.971680
9641.680991	1.363495	0.269209	14163.744141
9641.681861	1.328536	0.269209	15319.570312
9641.682923	1.287989	0.269209	16687.416016
9641.683952	1.250240	0.269209	17973.914062
9641.684839	1.218157	0.269209	19054.419922
9641.685784	0.783746	0.269209	19795.060547
9641.686858	0.095017	0.269209	19897.109375
9641.687793	0.090641	0.269209	19981.859375
9641.688650	0.090619	0.269209	20059.519531
9641.689686	0.090729	0.269209	20153.513672
9641.690707	0.090659	0.269209	20246.076172
9641.691598	0.090659	0.269209	20326.853516
9641.692560	0.090758	0.269209	20414.162109
9641.693609	0.090696	0.269209	20509.302734
9641.694537	0.090604	0.269209	20593.382812
9641.695404	0.090677	0.269209	20672.000000
9642.655161	1.186886	0.305556	500.865875
9642.656166	1.712900	0.305556	2222.330811
9642.657209	1.681040	0.305556	3975.655518
9642.658098	1.634319	0.305556	5428.564941
9642.659042	1.586272	0.305556	6926.005859
9642.660107	1.534515	0.305556	8560.264648
9642.661054	1.490076	0.305556	9971.366211
9642.661927	1.450770	0.305556	11237.888672
9642.662987	1.406067	0.305556	12728.319336
9642.664008	1.363898	0.305556	14120.859375
9642.664903	1.328405	0.305556	15309.781250
9642.665880	1.290959	0.305556	16571.048828
9642.666936	1.251929	0.305556	17893.085937
9642.667855	1.218900	0.305556	19013.255859
9642.668725	0.884681	0.305556	19782.929687
9642.669823	0.098104	0.305556	19890.648437
9642.670813	0.090608	0.305556	19980.349609
9642.671705	0.090634	0.305556	20061.195312
9642.672706	0.090630	0.305556	20151.916016
9642.673758	0.090619	0.305556	20247.248047
9642.674638	0.090637	0.305556	20327.007812
9642.675502	0.090626	0.305556	20405.308594
9642.676607	0.090677	0.305556	20505.507812
9642.677556	0.090553	0.305556	20591.443359
9642.678413	0.090659	0.305556	20669.138672
9643.706894	1.266090	0.281922	638.109436
9643.707787	1.715618	0.281922	2170.156006
9643.708647	1.689932	0.281922	3623.497070
9643.709751	1.634440	0.281922	5427.918457
9643.710711	1.585309	0.281922	6949.814941
9643.711597	1.542341	0.281922	8316.329102
9643.712614	1.495236	0.281922	9836.983398
9643.713659	1.448653	0.281922	11350.826172
9643.714543	1.410385	0.281922	12597.606445
9643.715424	1.372463	0.281922	13806.747070
9643.716532	1.329661	0.281922	15280.010742
9643.717483	1.292699	0.281922	16509.367187
9643.718347	1.260436	0.281922	17598.382812
9643.719371	1.224100	0.281922	18851.861328
9643.720432	0.860467	0.281922	19764.816406
9643.721305	0.107175	0.281922	19858.380859
9643.722242	0.090703	0.281922	19943.369141
9643.723313	0.090743	0.281922	20040.554687
9643.724250	0.090615	0.281922	20125.460937
9643.725112	0.090714	0.281922	20203.656250
9643.726138	0.090725	0.281922	20296.740234
9643.727155	0.090667	0.281922	20388.947266
9643.728045	0.090670	0.281922	20469.644531
9643.728993	0.090780	0.281922	20555.703125
9643.730039	0.090758	0.281922	20650.636719
9644.699223	1.348645	0.293455	786.260071
9644.700270	1.715654	0.293455	2582.550049
9644.701157	1.678733	0.293455	4071.585937
9644.702062	1.630609	0.293455	5547.287109
9644.703154	1.576381	0.293455	7268.694824
9644.704096	1.531110	0.293455	8711.000000
9644.704959	1.489680	0.293455	9996.593750
9644.706008	1.443794	0.293455	11511.133789
9644.707060	1.399816	0.293455	12983.740234
9644.707943	1.362854	0.293455	14187.140625
9644.708883	1.325467	0.293455	15433.080078
9644.709965	1.284331	0.293455	16822.726562
9644.710882	1.250153	0.293455	17969.117187
9644.711750	1.218574	0.293455	19026.839844
9644.712807	0.700045	0.293455	19766.787109
9644.713817	0.092765	0.293455	19860.480469
9644.714700	0.090626	0.293455	19940.503906
9644.715672	0.090721	0.293455	20028.685547
9644.716726	0.090696	0.293455	20124.279297
9644.717640	0.090652	0.293455	20207.134766
9644.718502	0.090615	0.293455	20285.244141
9644.719598	0.090809	0.293455	20384.771484
9644.720596	0.090659	0.293455	20475.250000
9644.721487	0.090601	0.293455	20555.974609
9644.722471	0.090703	0.293455	20645.226562
9645.739524	1.266628	0.301303	630.780945
9645.740516	1.716493	0.301303	2333.541992
9645.741408	1.685544	0.301303	3837.047852
9645.742398	1.634205	0.301303	5454.911133
9645.743463	1.580742	0.301303	7138.401367
9645.744352	1.536808	0.301303	8504.623047
9645.745245	1.493031	0.301303	9837.899414
9645.746357	1.444860	0.301303	11444.583008
9645.747320	1.404609	0.301303	12797.221680
9645.748183	1.368483	0.301303	13978.222656
9645.749234	1.327119	0.301303	15373.025391
9645.750252	1.287579	0.301303	16683.781250
9645.751141	1.254719	0.301303	17799.226562
9645.752077	1.221431	0.301303	18942.486328
9645.753152	0.750780	0.301303	19749.574219
9645.754081	0.096735	0.301303	19839.441406
9645.754944	0.090535	0.301303	19917.572266
9645.755994	0.090608	0.301303	20012.710937
9645.757005	0.090586	0.301303	20104.292969
9645.757875	0.090630	0.301303	20183.140625
9645.758823	0.090740	0.301303	20269.162109
9645.759883	0.090652	0.301303	20365.253906
9645.760806	0.090641	0.301303	20448.916016
9645.761674	0.090626	0.301303	20527.580078
9645.762727	0.090743	0.301303	20623.132812
9646.739004	1.318726	0.297282	721.342896
9646.740062	1.715350	0.297282	2536.183594
9646.740954	1.679440	0.297282	4034.243652
9646.741867	1.631356	0.297282	5523.671875
9646.742938	1.577681	0.297282	7213.368164
9646.743886	1.532058	0.297282	8665.759766
9646.744755	1.490764	0.297282	9961.233398
9646.745804	1.444471	0.297282	11476.484375
9646.746830	1.401489	0.297282	12914.412109
9646.747716	1.364377	0.297282	14123.250000
9646.748673	1.327024	0.297282	15393.211914
9646.749729	1.286049	0.297282	16751.279297
9646.750655	1.251892	0.297282	17910.531250
9646.751515	1.220526	0.297282	18960.183594
9646.752583	0.752461	0.297282	19763.812500
9646.753605	0.094032	0.297282	19859.914062
9646.754474	0.090608	0.297282	19938.652344
9646.755444	0.090652	0.297282	20026.583984
9646.756492	0.090670	0.297282	20121.605469
9646.757402	0.090593	0.297282	20204.044922
9646.758272	0.090648	0.297282	20282.908203
9646.759347	0.090670	0.297282	20380.378906
9646.760341	0.090575	0.297282	20470.410156
9646.761235	0.090619	0.297282	20551.423828
9646.762213	0.090626	0.297282	20640.056641
9647.774139	1.191621	0.288336	504.055725
9647.775024	1.709180	0.288336	2016.679687
9647.776142	1.682966	0.288336	3898.236084
9647.777107	1.632960	0.288336	5474.042969
9647.777976	1.588422	0.288336	6854.381348
9647.779012	1.537907	0.288336	8447.652344
9647.780055	1.489105	0.288336	10000.789062
9647.780951	1.449027	0.288336	11299.117187
9647.781908	1.409235	0.288336	12647.754883
9647.782975	1.364824	0.288336	14104.022461
9647.783908	1.327258	0.288336	15342.354492
9647.784777	1.293131	0.288336	16466.085937
9647.785848	1.254199	0.288336	17809.333984
9647.786863	1.218036	0.288336	19045.640625
9647.787756	0.868711	0.288336	19821.400391
9647.788749	0.107531	0.288336	19928.177734
9647.789807	0.090586	0.288336	20024.017578
9647.790707	0.090597	0.288336	20105.554687
9647.791566	0.090645	0.288336	20183.417969
9647.792658	0.090780	0.288336	20282.548828
9647.793650	0.090663	0.288336	20372.486328
9647.794527	0.090608	0.288336	20451.949219
9647.795516	0.090762	0.288336	20541.712891
9647.796557	0.090641	0.288336	20636.070312
9647.797436	0.090652	0.288336	20715.753906
9648.779786	1.266471	0.278659	628.169556
9648.780674	1.715204	0.278659	2151.270508
9648.781541	1.689218	0.278659	3615.822266
9648.782674	1.632869	0.278659	5465.862305
9648.783642	1.583811	0.278659	6998.991211
9648.784515	1.541433	0.278659	8344.662109
9648.785560	1.492460	0.278659	9904.282227
9648.786589	1.446075	0.278659	11392.293945
9648.787477	1.408777	0.278659	12643.288086
9648.788411	1.370266	0.278659	13923.116211
9648.789478	1.327496	0.278659	15339.554687
9648.790420	1.291121	0.278659	16555.791016
9648.791286	1.258554	0.278659	17645.699219
9648.792358	1.220815	0.278659	18954.414062
9648.793377	0.802050	0.278659	19771.703125
9648.794248	0.101993	0.278659	19860.539062
9648.795243	0.090681	0.278659	19950.767578
9648.796290	0.090740	0.278659	20045.771484
9648.797198	0.090630	0.278659	20128.062500
9648.798064	0.090677	0.278659	20206.589844
9648.799126	0.090674	0.278659	20302.884766
9648.800141	0.090634	0.278659	20394.876953
9648.801030	0.090604	0.278659	20475.423828
9648.802010	0.090736	0.278659	20564.345703
9648.803065	0.090732	0.278659	20660.068359
9649.810871	1.185612	0.285866	499.142487
9649.811853	1.709927	0.285866	2178.290527
9649.812919	1.681256	0.285866	3970.509521
9649.813829	1.633110	0.285866	5456.640137
9649.814701	1.586887	0.285866	6840.405762
9649.815801	1.535182	0.285866	8529.105469
9649.816788	1.488911	0.285866	9998.661133
9649.817667	1.449635	0.285866	11272.890625
9649.818674	1.407374	0.285866	12690.116211
9649.819738	1.364019	0.285866	14141.431641
9649.820631	1.327760	0.285866	15327.121094
9649.821522	1.292036	0.285866	16478.326172
9649.822637	1.252017	0.285866	17874.324219
9649.823595	1.218171	0.285866	19041.332031
9649.824472	0.882623	0.285866	19815.392578
9649.825535	0.098687	0.285866	19920.296875
9649.826543	0.090601	0.285866	20011.623047
9649.827431	0.090659	0.285866	20092.128906
9649.828379	0.090692	0.285866	20178.105469
9649.829424	0.090692	0.285866	20272.878906
9649.830341	0.090659	0.285866	20356.013672
9649.831200	0.090688	0.285866	20433.916016
9649.832249	0.090721	0.285866	20529.082031
9649.833266	0.090656	0.285866	20621.279297
9649.834137	0.090670	0.285866	20700.253906
9650.818623	1.329847	0.285048	727.426514
9650.819701	1.715098	0.285048	2576.301758
9650.820577	1.678865	0.285048	4046.987305
9650.821503	1.630203	0.285048	5556.554687
9650.822576	1.576073	0.285048	7247.680664
9650.823522	1.530590	0.285048	8695.618164
9650.824394	1.489325	0.285048	9994.309570
9650.825441	1.442560	0.285048	11504.669922
9650.826482	1.399475	0.285048	12961.523437
9650.827380	1.362422	0.285048	14184.978516
9650.828341	1.324545	0.285048	15457.866211
9650.829412	1.283075	0.285048	16832.039062
9650.830349	1.248823	0.285048	18002.185547
9650.831217	1.216996	0.285048	19058.537109
9650.832318	0.622020	0.285048	19743.380859
9650.833312	0.091545	0.285048	19834.376953
9650.834198	0.090560	0.285048	19914.613281
9650.835189	0.090721	0.285048	20004.517578
9650.836215	0.090637	0.285048	20097.511719
9650.837110	0.090590	0.285048	20178.589844
9650.837969	0.090754	0.285048	20256.548828
9650.839056	0.090725	0.285048	20355.167969
9650.840013	0.090604	0.285048	20441.876953
9650.840882	0.090612	0.285048	20520.619141
9650.841896	0.090773	0.285048	20612.662109
9651.849716	1.256590	0.292944	595.623901
9651.850591	1.713662	0.292944	2095.078125
9651.851578	1.688203	0.292944	3761.334717
9651.852644	1.632477	0.292944	5501.554687
9651.853561	1.585217	0.292944	6955.198730
9651.854427	1.541774	0.292944	8290.375000
9651.855507	1.492013	0.292944	9901.749023
9651.856510	1.446467	0.292944	11352.555664
9651.857406	1.409436	0.292944	12615.410156
9651.858388	1.368863	0.292944	13959.633789
9651.859453	1.326639	0.292944	15372.504883
9651.860356	1.291150	0.292944	16538.414062
9651.861228	1.257202	0.292944	17634.695312
9651.862344	1.218871	0.292944	18994.955078
9651.863314	0.822627	0.292944	19792.902344
9651.864178	0.104103	0.292944	19882.847656
9651.865232	0.090641	0.292944	19978.382812
9651.866269	0.090601	0.292944	20072.335937
9651.867161	0.090637	0.292944	20153.183594
9651.868094	0.090740	0.292944	20237.843750
9651.869166	0.090718	0.292944	20335.093750
9651.870101	0.090597	0.292944	20419.802734
9651.870962	0.090593	0.292944	20497.802734
9651.872019	0.090692	0.292944	20593.664062
9651.873039	0.090586	0.292944	20686.062500
9652.856306	1.264501	0.290821	595.579834
9652.857190	1.714010	0.290821	2110.764648
9652.858165	1.687676	0.290821	3756.248535
9652.859228	1.632422	0.290821	5491.512695
9652.860150	1.585093	0.290821	6952.968262
9652.861021	1.541367	0.290821	8295.499023
9652.862114	1.491302	0.290821	9925.492187
9652.863111	1.446295	0.290821	11367.448242
9652.864012	1.408766	0.290821	12636.746094
9652.865010	1.367736	0.290821	14001.746094
9652.866076	1.325892	0.290821	15415.147461
9652.866970	1.290366	0.290821	16568.734375
9652.867861	1.256539	0.290821	17688.310547
9652.868967	1.218153	0.290821	19035.587891
9652.869935	0.788789	0.290821	19799.136719
9652.870799	0.101488	0.290821	19886.822266
9652.871840	0.090769	0.290821	19981.312500
9652.872872	0.090656	0.290821	20074.869141
9652.873751	0.090634	0.290821	20154.535156
9652.874686	0.090762	0.290821	20239.396484
9652.875740	0.090725	0.290821	20335.021484
9652.876669	0.090579	0.290821	20419.169922
9652.877530	0.090612	0.290821	20497.185547
9652.878591	0.090732	0.290821	20593.453125
9652.879612	0.090590	0.290821	20685.945312
9653.890488	1.184319	0.294982	496.229584
9653.891476	1.709703	0.294982	2185.416504
9653.892528	1.681897	0.294982	3954.772217
9653.893429	1.634260	0.294982	5427.240723
9653.894291	1.588561	0.294982	6796.580078
9653.895378	1.537782	0.294982	8468.149414
9653.896372	1.490339	0.294982	9949.546875
9653.897249	1.450997	0.294982	11222.071289
9653.898243	1.409139	0.294982	12622.755859
9653.899292	1.366425	0.294982	14056.134766
9653.900188	1.329998	0.294982	15247.812500
9653.901070	1.294285	0.294982	16389.371094
9653.902180	1.254573	0.294982	17781.947266
9653.903138	1.220592	0.294982	18951.273437
9653.904010	0.967017	0.294982	19794.511719
9653.905043	0.108571	0.294982	19906.666016
9653.906081	0.090579	0.294982	20000.687500
9653.906974	0.090601	0.294982	20081.593750
9653.907916	0.090718	0.294982	20167.050781
9653.908972	0.090674	0.294982	20262.802734
9653.909919	0.090575	0.294982	20348.578125
9653.910783	0.090601	0.294982	20426.857422
9653.911858	0.090637	0.294982	20524.292969
9653.912869	0.090553	0.294982	20615.841797
9653.913745	0.090590	0.294982	20695.199219
9654.892062	1.281903	0.291353	652.488708
9654.893015	1.716130	0.291353	2287.960937
9654.893880	1.687734	0.291353	3747.851074
9654.894922	1.632931	0.291353	5449.365234
9654.896004	1.579537	0.291353	7158.424805
9654.896878	1.536295	0.291353	8501.146484
9654.897818	1.491936	0.291353	9903.566406
9654.898883	1.444373	0.291353	11441.823242
9654.899826	1.404683	0.291353	12766.439453
9654.900698	1.368036	0.291353	13959.367187
9654.901756	1.326456	0.291353	15362.757812
9654.902774	1.287151	0.291353	16673.078125
9654.903669	1.254287	0.291353	17795.666016
9654.904637	1.219977	0.291353	18976.603516
9654.905694	0.730818	0.291353	19749.078125
9654.906610	0.095680	0.291353	19836.720703
9654.907472	0.090667	0.291353	19914.875000
9654.908563	0.090710	0.291353	20013.839844
9654.909550	0.090601	0.291353	20103.261719
9654.910439	0.090641	0.291353	20183.841797
9654.911438	0.090725	0.291353	20274.476562
9654.912474	0.090743	0.291353	20368.486328
9654.913364	0.090619	0.291353	20449.136719
9654.914221	0.090674	0.291353	20526.843750
9654.915323	0.090685	0.291353	20626.779297
9655.929323	1.253181	0.286136	578.969666
9655.930202	1.713413	0.286136	2085.059814
9655.931182	1.688998	0.286136	3740.277588
9655.932237	1.633619	0.286136	5463.746094
9655.933151	1.586583	0.286136	6913.883301
9655.934013	1.543451	0.286136	8244.337891
9655.935112	1.492863	0.286136	9884.994141
9655.936113	1.447929	0.286136	11334.371094
9655.936992	1.410795	0.286136	12574.459961
9655.938006	1.369728	0.286136	13963.364258
9655.939061	1.327738	0.286136	15364.127930
9655.939955	1.292204	0.286136	16519.359375
9655.940821	1.258217	0.286136	17608.974609
9655.941923	1.220416	0.286136	18953.873047
9655.942903	0.848789	0.286136	19785.685547
9655.943777	0.106853	0.286136	19879.074219
9655.944815	0.090674	0.286136	19973.193359
9655.945857	0.090681	0.286136	20067.683594
9655.946744	0.090579	0.286136	20148.027344
9655.947670	0.090670	0.286136	20231.988281
9655.948734	0.090703	0.286136	20328.496094
9655.949672	0.090663	0.286136	20413.537109
9655.950539	0.090604	0.286136	20492.091797
9655.951596	0.090677	0.286136	20587.937500
9655.952613	0.090615	0.286136	20680.093750
9656.929740	1.204669	0.273463	531.259094
9656.930603	1.710835	0.273463	2007.709717
9656.931711	1.684303	0.273463	3873.917480
9656.932717	1.631180	0.273463	5514.884766
9656.933600	1.586261	0.273463	6915.553223
9656.934602	1.537317	0.273463	8455.945312
9656.935694	1.487439	0.273463	10080.228516
9656.936569	1.447225	0.273463	11346.550781
9656.937447	1.408663	0.273463	12583.357422
9656.938548	1.364564	0.273463	14085.742187
9656.939508	1.326628	0.273463	15359.305664
9656.940381	1.292596	0.273463	16487.742187
9656.941406	1.254664	0.273463	17773.773437
9656.942449	1.217842	0.273463	19043.982422
9656.943349	0.853623	0.273463	19812.242187
9656.944293	0.106857	0.273463	19913.115234
9656.945342	0.090659	0.273463	20008.216797
9656.946283	0.090535	0.273463	20093.410156
9656.947152	0.090597	0.273463	20172.138672
9656.948213	0.090729	0.273463	20268.402344
9656.949211	0.090641	0.273463	20358.861328
9656.950100	0.090619	0.273463	20439.421875
9656.951070	0.090710	0.273463	20527.410156
9656.952119	0.090685	0.273463	20622.539062
9656.953027	0.090634	0.273463	20704.833984
9657.967044	1.203453	0.281020	516.281494
9657.968131	1.714215	0.281020	2379.633301
9657.969147	1.677539	0.281020	4084.012939
9657.970038	1.630847	0.281020	5537.097656
9657.971014	1.581995	0.281020	7081.124512
9657.972064	1.531307	0.281020	8688.997070
9657.972973	1.488069	0.281020	10041.651367
9657.973835	1.448588	0.281020	11290.333984
9657.974905	1.404844	0.281020	12793.516602
9657.975911	1.363103	0.281020	14164.797852
9657.976791	1.327910	0.281020	15333.358398
9657.977786	1.290113	0.281020	16617.021484
9657.978850	1.251046	0.281020	17948.134766
9657.979749	1.218241	0.281020	19043.333984
9657.980611	0.833262	0.281020	19761.605469
9657.981732	0.096248	0.281020	19869.498047
9657.982684	0.090568	0.281020	19955.718750
9657.983552	0.090568	0.281020	20034.332031
9657.984593	0.090839	0.281020	20128.894531
9657.985646	0.090612	0.281020	20224.308594
9657.986533	0.090637	0.281020	20304.703125
9657.987440	0.090681	0.281020	20386.951172
9657.988515	0.090747	0.281020	20484.503906
9657.989454	0.090659	0.281020	20569.632812
9657.990319	0.090681	0.281020	20648.072266
9658.964432	1.215040	0.280335	527.327454
9658.965331	1.710754	0.280335	2065.295654
9658.966269	1.690393	0.280335	3650.884277
9658.967175	1.642738	0.280335	5139.205078
9658.968060	1.597906	0.280335	6553.352539
9658.969010	1.551405	0.280335	8027.187500
9658.969972	1.506207	0.280335	9476.159180
9658.970867	1.464496	0.280335	10786.882812
9658.971804	1.424451	0.280335	12121.592773
9658.972779	1.383596	0.280335	13470.598633
9658.973708	1.346309	0.280335	14721.319336
9658.974580	1.311156	0.280335	15864.647461
9658.975621	1.272642	0.280335	17189.466797
9658.976506	1.240316	0.280335	18287.146484
9658.977428	1.208005	0.280335	19400.927734
9658.978295	0.540970	0.280335	19869.949219
9658.979261	0.091300	0.280335	19958.144531
9658.980190	0.090670	0.280335	20042.376953
9658.981065	0.090677	0.280335	20121.720703
9658.982102	0.090674	0.280335	20215.750000
9658.983007	0.090634	0.280335	20297.773437
9658.983874	0.090630	0.280335	20376.349609
9658.984731	0.090674	0.280335	20454.056641
9658.985784	0.090553	0.280335	20549.408203
9658.986663	0.090670	0.280335	20629.107422
9658.987529	0.090714	0.280335	20707.666016
9660.007866	1.202076	0.262574	504.872101
9660.008927	1.715984	0.262574	2325.531006
9660.009821	1.685563	0.262574	3832.424072
9660.010700	1.639303	0.262574	5273.371094
9660.011679	1.590637	0.262574	6830.604980
9660.012644	1.542466	0.262574	8319.083984
9660.013573	1.498978	0.262574	9711.634766
9660.014447	1.458464	0.262574	10986.332031
9660.015486	1.415328	0.262574	12456.858398
9660.016373	1.378107	0.262574	13679.239258
9660.017242	1.342815	0.262574	14846.145508
9660.018192	1.305743	0.262574	16086.601562
9660.019180	1.268525	0.262574	17339.904297
9660.020098	1.235500	0.262574	18474.093750
9660.020981	1.204193	0.262574	19537.396484
9660.021998	0.308632	0.262574	19851.275391
9660.022902	0.090531	0.262574	19933.115234
9660.023773	0.090560	0.262574	20011.994141
9660.024628	0.090641	0.262574	20089.492187
9660.025680	0.090685	0.262574	20184.892578
9660.026562	0.090601	0.262574	20264.802734
9660.027421	0.090641	0.262574	20342.664062
9660.028499	0.090582	0.262574	20440.312500
9660.029403	0.090612	0.262574	20522.224609
9660.030268	0.090612	0.262574	20600.603516
9660.031239	0.090776	0.262574	20688.748047
9661.001285	1.324090	0.276830	748.111145
9661.002281	1.716332	0.276830	2457.577637
9661.003183	1.681018	0.276830	3973.855957
9661.004050	1.633766	0.276830	5390.331055
9661.005138	1.581226	0.276830	7110.704590
9661.006042	1.536965	0.276830	8500.121094
9661.006918	1.495305	0.276830	9810.008789
9661.007931	1.450726	0.276830	11279.594727
9661.008929	1.408019	0.276830	12684.796875
9661.009811	1.370878	0.276830	13893.911133
9661.010679	1.334938	0.276830	15052.636719
9661.011776	1.293732	0.276830	16471.859375
9661.012697	1.259235	0.276830	17631.615234
9661.013581	1.227828	0.276830	18717.015625
9661.014572	1.011544	0.276830	19719.455078
9661.015576	0.118989	0.276830	19838.919922
9661.016462	0.090538	0.276830	19919.136719
9661.017324	0.090648	0.276830	19997.275391
9661.018412	0.090656	0.276830	20095.908203
9661.019325	0.090582	0.276830	20178.609375
9661.020196	0.090641	0.276830	20257.556641
9661.021194	0.090747	0.276830	20348.123047
9661.022194	0.090645	0.276830	20438.767578
9661.023075	0.090674	0.276830	20518.650391
9661.023931	0.090608	0.276830	20596.210937
9662.045638	1.192551	0.262671	516.374695
9662.046508	1.711084	0.262671	2005.017822
9662.047532	1.687815	0.262671	3733.340332
9662.048570	1.634198	0.262671	5429.637695
9662.049458	1.588352	0.262671	6840.094238
9662.050385	1.543403	0.262671	8270.829102
9662.051467	1.492405	0.262671	9885.611328
9662.052423	1.449781	0.262671	11271.602539
9662.053287	1.412542	0.262671	12492.038086
9662.054355	1.368926	0.262671	13954.050781
9662.055365	1.328650	0.262671	15295.987305
9662.056253	1.294006	0.262671	16445.064453
9662.057237	1.258319	0.262671	17683.250000
9662.058299	1.220196	0.262671	18979.097656
9662.059218	0.897140	0.262671	19803.568359
9662.060074	0.114327	0.262671	19901.433594
9662.061158	0.090751	0.262671	19999.806641
9662.062158	0.090586	0.262671	20090.392578
9662.063037	0.090696	0.262671	20170.113281
9662.064025	0.090802	0.262671	20259.826172
9662.065069	0.090619	0.262671	20354.431641
9662.065954	0.090663	0.262671	20434.667969
9662.066817	0.090674	0.262671	20512.919922
9662.067909	0.090780	0.262671	20612.050781
9662.068881	0.090579	0.262671	20700.093750
9663.038916	1.195353	0.262848	519.978394
9663.039782	1.710703	0.262848	2001.447266
9663.040841	1.686716	0.262848	3787.679687
9663.041866	1.633103	0.262848	5461.610352
9663.042760	1.587609	0.262848	6880.932617
9663.043709	1.541876	0.262848	8344.172852
9663.044761	1.492189	0.262848	9913.955078
9663.045689	1.450177	0.262848	11259.718750
9663.046553	1.412754	0.262848	12480.337891
9663.047619	1.369611	0.262848	13940.342773
9663.048637	1.329009	0.262848	15293.273437
9663.049521	1.294354	0.262848	16437.482422
9663.050494	1.258696	0.262848	17662.193359
9663.051568	1.220585	0.262848	18973.101562
9663.052469	0.910056	0.262848	19793.062500
9663.053342	0.115964	0.262848	19894.298828
9663.054411	0.090652	0.262848	19991.205078
9663.055408	0.090590	0.262848	20081.523437
9663.056305	0.090568	0.262848	20162.761719
9663.057281	0.090791	0.262848	20251.373047
9663.058329	0.090681	0.262848	20346.406250
9663.059229	0.090634	0.262848	20427.976562
9663.060093	0.090652	0.262848	20506.298828
9663.061192	0.090674	0.262848	20605.949219
9663.062159	0.090564	0.262848	20693.525391
9664.082373	1.208584	0.256496	523.316833
9664.083240	1.710553	0.256496	2006.366211
9664.084328	1.684347	0.256496	3838.935547
9664.085330	1.631851	0.256496	5474.049805
9664.086227	1.586898	0.256496	6897.497559
9664.087230	1.538251	0.256496	8440.363281
9664.088286	1.489182	0.256496	10012.939453
9664.089177	1.448558	0.256496	11303.605469
9664.090048	1.410084	0.256496	12531.789062
9664.091171	1.365377	0.256496	14065.107422
9664.092130	1.327588	0.256496	15338.264648
9664.093004	1.293278	0.256496	16468.589844
9664.094054	1.254840	0.256496	17786.171875
9664.095088	1.217849	0.256496	19045.427734
9664.095993	0.851510	0.256496	19816.044922
9664.096930	0.107230	0.256496	19916.519531
9664.097975	0.090637	0.256496	20011.236328
9664.098904	0.090590	0.256496	20095.394531
9664.099762	0.090619	0.256496	20173.146484
9664.100820	0.090677	0.256496	20269.083984
9664.101836	0.090575	0.256496	20361.107422
9664.102717	0.090648	0.256496	20440.968750
9664.103691	0.090707	0.256496	20529.316406
9664.104738	0.090747	0.256496	20624.328125
9664.105647	0.090601	0.256496	20706.683594
9665.076712	1.227385	0.255082	578.098450
9665.077811	1.714501	0.255082	2462.334717
9665.078756	1.678392	0.255082	4048.415527
9665.079629	1.632023	0.255082	5473.171387
9665.080689	1.578669	0.255082	7146.561035
9665.081723	1.529180	0.255082	8727.732422
9665.082614	1.486966	0.255082	10052.619141
9665.083580	1.444988	0.255082	11448.477539
9665.084644	1.400094	0.255082	12938.177734
9665.085573	1.361305	0.255082	14202.830078
9665.086439	1.326313	0.255082	15351.417969
9665.087521	1.285353	0.255082	16742.169922
9665.088517	1.248618	0.255082	17985.792969
9665.089404	1.217109	0.255082	19065.369141
9665.090422	0.691630	0.255082	19769.447266
9665.091471	0.092816	0.255082	19866.810547
9665.092361	0.090579	0.255082	19947.425781
9665.093218	0.090634	0.255082	20025.099609
9665.094320	0.090732	0.255082	20125.085937
9665.095288	0.090615	0.255082	20212.800781
9665.096142	0.090601	0.255082	20290.173828
9665.097243	0.090667	0.255082	20389.998047
9665.098279	0.090637	0.255082	20483.898437
9665.099153	0.090615	0.255082	20563.095703
9665.100085	0.090729	0.255082	20647.654297
9666.119105	1.194752	0.247964	512.548706
9666.120079	1.709008	0.247964	2177.122070
9666.121149	1.681055	0.247964	3975.850586
9666.122076	1.632539	0.247964	5489.214355
9666.122938	1.587147	0.247964	6857.334961
9666.123987	1.536742	0.247964	8469.376953
9666.124998	1.488962	0.247964	9974.717773
9666.125890	1.449489	0.247964	11267.661133
9666.126874	1.408755	0.247964	12653.875977
9666.127926	1.364755	0.247964	14089.597656
9666.128844	1.328247	0.247964	15308.928711
9666.129710	1.293464	0.247964	16429.068359
9666.130807	1.253932	0.247964	17804.630859
9666.131808	1.218160	0.247964	19024.009766
9666.132711	0.870040	0.247964	19809.656250
9666.133708	0.104626	0.247964	19913.968750
9666.134764	0.090637	0.247964	20009.681641
9666.135654	0.090615	0.247964	20090.330078
9666.136529	0.090645	0.247964	20169.644531
9666.137628	0.090696	0.247964	20269.318359
9666.138592	0.090637	0.247964	20356.693359
9666.139458	0.090626	0.247964	20435.175781
9666.140483	0.090725	0.247964	20528.169922
9666.141516	0.090634	0.247964	20621.794922
9666.142394	0.090623	0.247964	20701.361328
9667.114514	1.272740	0.259843	641.461182
9667.115417	1.715094	0.259843	2190.190918
9667.116283	1.688284	0.259843	3652.244629
9667.117390	1.632722	0.259843	5459.667969
9667.118390	1.581617	0.259843	7041.285156
9667.119288	1.538665	0.259843	8423.005859
9667.120288	1.491749	0.259843	9914.754883
9667.121347	1.444735	0.259843	11444.729492
9667.122243	1.406363	0.259843	12704.831055
9667.123127	1.368497	0.259843	13914.583008
9667.124224	1.326291	0.259843	15369.524414
9667.125173	1.289582	0.259843	16593.337891
9667.126039	1.257433	0.259843	17682.275391
9667.127092	1.220068	0.259843	18967.007812
9667.128131	0.760166	0.259843	19756.820312
9667.129014	0.098906	0.259843	19844.154297
9667.129960	0.090652	0.259843	19929.910156
9667.131023	0.090677	0.259843	20026.300781
9667.131948	0.090652	0.259843	20110.154297
9667.132806	0.090667	0.259843	20187.945312
9667.133846	0.090714	0.259843	20282.287109
9667.134863	0.090634	0.259843	20374.460937
9667.135737	0.090659	0.259843	20453.697266
9667.136691	0.090714	0.259843	20540.238281
9667.137755	0.090703	0.259843	20636.746094
9668.154845	1.237017	0.250852	567.790588
9668.155719	1.712556	0.250852	2064.564697
9668.156705	1.688734	0.250852	3729.656494
9668.157758	1.634257	0.250852	5450.528809
9668.158654	1.587627	0.250852	6873.042480
9668.159520	1.543700	0.250852	8209.886719
9668.160621	1.492936	0.250852	9853.609375
9668.161607	1.448701	0.250852	11282.028320
9668.162491	1.411718	0.250852	12529.986328
9668.163511	1.370024	0.250852	13927.411133
9668.164562	1.328236	0.250852	15323.387695
9668.165454	1.293018	0.250852	16476.759766
9668.166334	1.259030	0.250852	17584.705078
9668.167452	1.220383	0.250852	18949.093750
9668.168417	0.875420	0.250852	19793.873047
9668.169286	0.109226	0.250852	19888.791016
9668.170337	0.090747	0.250852	19984.166016
9668.171361	0.090681	0.250852	20077.023437
9668.172256	0.090619	0.250852	20158.126953
9668.173201	0.090656	0.250852	20243.796875
9668.174250	0.090714	0.250852	20338.955078
9668.175177	0.090612	0.250852	20422.951172
9668.176039	0.090637	0.250852	20501.080078
9668.177087	0.090656	0.250852	20596.087891
9668.178096	0.090623	0.250852	20687.525391
9669.153333	1.297833	0.264532	709.914856
9669.154400	1.714812	0.264532	2539.619141
9669.155286	1.678458	0.264532	4026.733154
9669.156162	1.630203	0.264532	5454.790527
9669.157283	1.575655	0.264532	7221.100586
9669.158254	1.530084	0.264532	8706.812500
9669.159125	1.488713	0.264532	10003.481445
9669.160152	1.442717	0.264532	11485.152344
9669.161214	1.398743	0.264532	12970.617187
9669.162107	1.361689	0.264532	14186.605469
9669.163049	1.324453	0.264532	15434.240234
9669.164113	1.283536	0.264532	16799.923828
9669.165053	1.249050	0.264532	17974.031250
9669.165922	1.217651	0.264532	19032.169922
9669.166989	0.664724	0.264532	19741.429687
9669.168002	0.092146	0.264532	19834.773437
9669.168890	0.090582	0.264532	19915.210937
9669.169845	0.090692	0.264532	20001.822266
9669.170892	0.090546	0.264532	20096.623047
9669.171805	0.090590	0.264532	20179.332031
9669.172663	0.090685	0.264532	20257.138672
9669.173741	0.090685	0.264532	20354.896484
9669.174737	0.090637	0.264532	20445.171875
9669.175614	0.090582	0.264532	20524.613281
9669.176608	0.090732	0.264532	20614.800781
9670.191572	1.217633	0.242308	538.193787
9670.192439	1.711062	0.242308	2021.684570
9670.193490	1.685947	0.242308	3793.615234
9670.194524	1.632070	0.242308	5481.175781
9670.195414	1.586536	0.242308	6893.192383
9670.196385	1.540316	0.242308	8388.839844
9670.197444	1.490152	0.242308	9966.911133
9670.198370	1.448470	0.242308	11308.195312
9670.199234	1.410908	0.242308	12527.219727
9670.200296	1.367197	0.242308	13979.183594
9670.201306	1.327299	0.242308	15319.754883
9670.202191	1.293095	0.242308	16464.144531
9670.203166	1.257246	0.242308	17689.958984
9670.204222	1.219559	0.242308	18977.814453
9670.205139	0.895616	0.242308	19799.095703
9670.205997	0.113518	0.242308	19896.494141
9670.207098	0.090688	0.242308	19996.341797
9670.208059	0.090593	0.242308	20083.402344
9670.208943	0.090564	0.242308	20163.460937
9670.209945	0.090685	0.242308	20254.326172
9670.211008	0.090637	0.242308	20350.673828
9670.211893	0.090648	0.242308	20430.898437
9670.212753	0.090685	0.242308	20508.886719
9670.213854	0.090721	0.242308	20608.771484
9670.214808	0.090641	0.242308	20695.242187
9671.194142	1.277036	0.255283	650.011353
9671.195046	1.714962	0.255283	2200.337158
9671.195918	1.689514	0.255283	3673.593506
9671.196917	1.637758	0.255283	5309.713379
9671.197921	1.585796	0.255283	6901.852539
9671.198821	1.542539	0.255283	8290.137695
9671.199688	1.499843	0.255283	9590.500977
9671.200783	1.452407	0.255283	11180.886719
9671.201696	1.413179	0.255283	12471.119141
9671.202578	1.376682	0.255283	13685.352539
9671.203571	1.337238	0.255283	15013.229492
9671.204579	1.297471	0.255283	16321.080078
9671.205477	1.264017	0.255283	17456.167969
9671.206340	1.231754	0.255283	18519.171875
9671.207456	1.059144	0.255283	19701.177734
9671.208356	0.154417	0.255283	19840.152344
9671.209212	0.090641	0.255283	19917.740234
9671.210312	0.090820	0.255283	20017.642578
9671.211303	0.090710	0.255283	20107.537109
9671.212182	0.090732	0.255283	20187.291016
9671.213192	0.090853	0.255283	20279.052734
9671.214244	0.090696	0.255283	20374.464844
9671.215128	0.090663	0.255283	20454.611328
9671.215994	0.090732	0.255283	20533.185547
9671.217079	0.090809	0.255283	20631.712891
9672.228294	1.210199	0.243408	525.226379
9672.229162	1.709773	0.243408	2009.309326
9672.230275	1.683241	0.243408	3882.756348
9672.231250	1.632733	0.243408	5474.670898
9672.232113	1.588282	0.243408	6845.358398
9672.233196	1.536222	0.243408	8509.086914
9672.234237	1.487285	0.243408	10057.350586
9672.235117	1.447929	0.243408	11331.527344
9672.236054	1.408623	0.243408	12651.407227
9672.237123	1.364513	0.243408	14110.071289
9672.238061	1.327053	0.243408	15354.847656
9672.238924	1.292911	0.243408	16470.630859
9672.240002	1.253921	0.243408	17822.357422
9672.241026	1.217490	0.243408	19069.066406
9672.241904	0.859010	0.243408	19823.277344
9672.242869	0.107527	0.243408	19927.041016
9672.243910	0.090681	0.243408	20021.439453
9672.244824	0.090692	0.243408	20104.332031
9672.245688	0.090729	0.243408	20182.722656
9672.246749	0.090773	0.243408	20279.033203
9672.247753	0.090604	0.243408	20370.000000
9672.248638	0.090645	0.243408	20450.220703
9672.249613	0.090721	0.243408	20538.673828
9672.250671	0.090710	0.243408	20634.644531
9672.251587	0.090648	0.243408	20717.677734
9673.232965	1.328470	0.256987	750.585815
9673.234022	1.714754	0.256987	2563.080322
9673.234908	1.678337	0.256987	4050.087402
9673.235776	1.630836	0.256987	5465.653320
9673.236907	1.575989	0.256987	7248.096680
9673.237870	1.529821	0.256987	8721.313477
9673.238736	1.488644	0.256987	10010.478516
9673.239774	1.443201	0.256987	11508.520508
9673.240810	1.400112	0.256987	12959.037109
9673.241690	1.362997	0.256987	14158.474609
9673.242617	1.326108	0.256987	15387.777344
9673.243697	1.284613	0.256987	16775.160156
9673.244637	1.249951	0.256987	17950.113281
9673.245507	1.218669	0.256987	19010.355469
9673.246556	0.714207	0.256987	19759.558594
9673.247570	0.093051	0.256987	19853.912109
9673.248462	0.090688	0.256987	19934.806641
9673.249415	0.090857	0.256987	20021.392578
9673.250474	0.090798	0.256987	20117.548828
9673.251408	0.090674	0.256987	20202.238281
9673.252269	0.090758	0.256987	20280.380859
9673.253354	0.090802	0.256987	20378.900391
9673.254353	0.090645	0.256987	20469.455078
9673.255238	0.090754	0.256987	20549.773437
9673.256215	0.090791	0.256987	20638.476562
9674.264064	1.271587	0.254264	617.991272
9674.264948	1.713970	0.254264	2133.140381
9674.265902	1.688372	0.254264	3743.846680
9674.266959	1.632667	0.254264	5469.576172
9674.267890	1.585214	0.254264	6945.410156
9674.268758	1.542341	0.254264	8284.162109
9674.269820	1.493368	0.254264	9870.119141
9674.270840	1.447793	0.254264	11346.868164
9674.271720	1.410183	0.254264	12587.829102
9674.272724	1.369742	0.254264	13963.050781
9674.273779	1.327049	0.254264	15363.087891
9674.274692	1.291531	0.254264	16542.255859
9674.275554	1.258231	0.254264	17626.851562
9674.276632	1.220775	0.254264	18942.847656
9674.277631	0.821744	0.254264	19763.769531
9674.278523	0.103228	0.254264	19855.847656
9674.279509	0.090740	0.254264	19945.316406
9674.280554	0.090718	0.254264	20040.117187
9674.281452	0.090732	0.254264	20121.595703
9674.282314	0.090718	0.254264	20199.794922
9674.283415	0.090765	0.254264	20299.728516
9674.284373	0.090623	0.254264	20386.544922
9674.285246	0.090604	0.254264	20465.642578
9674.286342	0.090780	0.254264	20565.136719
9674.287367	0.090648	0.254264	20658.050781
9675.271613	1.195247	0.258022	509.175049
9675.272617	1.709571	0.258022	2225.584961
9675.273680	1.679722	0.258022	4011.128906
9675.274590	1.631631	0.258022	5495.913086
9675.275451	1.586191	0.258022	6861.624023
9675.276541	1.535153	0.258022	8534.940430
9675.277525	1.488420	0.258022	9999.545898
9675.278405	1.449203	0.258022	11274.844727
9675.279427	1.407122	0.258022	12712.922852
9675.280483	1.363711	0.258022	14153.001953
9675.281365	1.327548	0.258022	15323.898437
9675.282241	1.291611	0.258022	16455.349609
9675.283359	1.251951	0.258022	17855.031250
9675.284324	1.218113	0.258022	19030.509766
9675.285196	0.899982	0.258022	19815.292969
9675.286210	0.102979	0.258022	19919.712891
9675.287252	0.090667	0.258022	20014.187500
9675.288144	0.090601	0.258022	20095.003906
9675.289070	0.090652	0.258022	20178.947266
9675.290124	0.090762	0.258022	20274.609375
9675.291065	0.090652	0.258022	20359.912109
9675.291930	0.090634	0.258022	20438.310547
9675.292987	0.090809	0.258022	20534.296875
9675.294007	0.090685	0.258022	20626.794922
9675.294892	0.090681	0.258022	20707.046875
9676.300746	1.217223	0.259279	536.795288
9676.301624	1.711494	0.259279	2039.487183
9676.302633	1.688101	0.259279	3742.780762
9676.303674	1.634081	0.259279	5443.858887
9676.304569	1.587872	0.259279	6865.004395
9676.305433	1.543780	0.259279	8198.831055
9676.306532	1.493881	0.259279	9840.605469
9676.307507	1.450386	0.259279	11254.731445
9676.308371	1.413303	0.259279	12475.825195
9676.309444	1.369541	0.259279	13945.342773
9676.310477	1.328405	0.259279	15317.584961
9676.311365	1.293607	0.259279	16466.308594
9676.312306	1.258828	0.259279	17650.865234
9676.313382	1.220427	0.259279	18964.044922
9676.314326	0.891086	0.259279	19805.230469
9676.315183	0.113287	0.259279	19902.318359
9676.316236	0.090740	0.259279	19997.867187
9676.317259	0.090608	0.259279	20090.558594
9676.318144	0.090670	0.259279	20170.800781
9676.319104	0.090743	0.259279	20257.914062
9676.320161	0.090776	0.259279	20353.865234
9676.321083	0.090641	0.259279	20437.435547
9676.321950	0.090663	0.259279	20516.041016
9676.323028	0.090707	0.259279	20613.822266
9676.324029	0.090688	0.259279	20704.601562
9677.310447	1.252299	0.243089	596.094116
9677.311326	1.713245	0.243089	2102.036133
9677.312290	1.688892	0.243089	3730.127441
9677.313349	1.633187	0.243089	5459.672852
9677.314284	1.585477	0.243089	6942.094238
9677.315152	1.542268	0.243089	8280.783203
9677.316227	1.492643	0.243089	9885.374023
9677.317238	1.447346	0.243089	11348.640625
9677.318122	1.409949	0.243089	12595.035156
9677.319122	1.369193	0.243089	13964.228516
9677.320181	1.326932	0.243089	15369.450195
9677.321086	1.291381	0.243089	16538.150391
9677.321947	1.258191	0.243089	17621.453125
9677.323029	1.220662	0.243089	18942.208984
9677.324035	0.812439	0.243089	19759.523437
9677.324924	0.102770	0.243089	19850.886719
9677.325930	0.090575	0.243089	19942.005859
9677.326991	0.090707	0.243089	20038.246094
9677.327878	0.090677	0.243089	20118.677734
9677.328767	0.090747	0.243089	20199.351562
9677.329854	0.090809	0.243089	20298.060547
9677.330811	0.090725	0.243089	20384.884766
9677.331677	0.090648	0.243089	20463.386719
9677.332718	0.090773	0.243089	20557.880859
9677.333746	0.090773	0.243089	20651.195312
9678.339594	1.267299	0.249752	636.183899
9678.340580	1.715643	0.249752	2327.808105
9678.341479	1.684640	0.249752	3842.299316
9678.342475	1.632590	0.249752	5468.359375
9678.343549	1.578662	0.249752	7163.842285
9678.344449	1.534435	0.249752	8544.833984
9678.345339	1.491552	0.249752	9872.314453
9678.346439	1.443702	0.249752	11460.386719
9678.347395	1.403848	0.249752	12802.464844
9678.348262	1.367604	0.249752	13988.177734
9678.349307	1.326482	0.249752	15374.351562
9678.350337	1.286656	0.249752	16699.607422
9678.351226	1.253467	0.249752	17813.939453
9678.352184	1.220079	0.249752	18982.775391
9678.353239	0.728225	0.249752	19751.052734
9678.354155	0.095852	0.249752	19838.853516
9678.355013	0.090667	0.249752	19916.644531
9678.356078	0.090802	0.249752	20013.349609
9678.357089	0.090751	0.249752	20105.097656
9678.357961	0.090688	0.249752	20184.177734
9678.358917	0.090839	0.249752	20271.019531
9678.359987	0.090765	0.249752	20368.138672
9678.360890	0.090736	0.249752	20450.074219
9678.361760	0.090791	0.249752	20529.062500
9678.362821	0.090795	0.249752	20625.396484
9679.344063	1.194203	0.235258	514.701477
9679.344929	1.710187	0.235258	1995.723145
9679.346022	1.684453	0.235258	3836.830566
9679.347037	1.631441	0.235258	5492.742676
9679.347935	1.585920	0.235258	6916.899414
9679.348935	1.537863	0.235258	8454.761719
9679.349990	1.488120	0.235258	10024.728516
9679.350898	1.447321	0.235258	11338.895508
9679.351763	1.409011	0.235258	12557.690430
9679.352869	1.364919	0.235258	14067.291016
9679.353854	1.326061	0.235258	15373.460937
9679.354718	1.292318	0.235258	16490.023437
9679.355748	1.254814	0.235258	17782.482422
9679.356798	1.217637	0.235258	19061.000000
9679.357685	0.851832	0.235258	19816.574219
9679.358561	0.107640	0.235258	19910.867187
9679.359668	0.090696	0.235258	20011.267578
9679.360601	0.090692	0.235258	20095.882812
9679.361466	0.090740	0.235258	20174.373047
9679.362470	0.090732	0.235258	20265.468750
9679.363504	0.090714	0.235258	20359.267578
9679.364394	0.090641	0.235258	20439.937500
9679.365305	0.090656	0.235258	20522.525391
9679.366386	0.090787	0.235258	20620.666016
9679.367330	0.090663	0.235258	20706.251953
9680.380370	1.232417	0.244254	545.960754
9680.381252	1.711989	0.244254	2055.934570
9680.382254	1.687310	0.244254	3746.618652
9680.383324	1.632506	0.244254	5493.400391
9680.384220	1.586111	0.244254	6914.555664
9680.385085	1.542008	0.244254	8248.392578
9680.386207	1.491207	0.244254	9921.527344
9680.387165	1.448606	0.244254	11309.291992
9680.388042	1.411267	0.244254	12546.972656
9680.389088	1.368186	0.244254	13978.095703
9680.390120	1.327273	0.244254	15347.841797
9680.391018	1.292095	0.244254	16508.142578
9680.391965	1.257455	0.244254	17698.953125
9680.393028	1.219409	0.244254	18995.185547
9680.393964	0.867700	0.244254	19807.353516
9680.394824	0.109772	0.244254	19901.757812
9680.395900	0.090754	0.244254	19999.410156
9680.396898	0.090688	0.244254	20089.917969
9680.397780	0.090740	0.244254	20169.951172
9680.398755	0.090795	0.244254	20258.476562
9680.399797	0.090696	0.244254	20352.982422
9680.400709	0.090656	0.244254	20435.660156
9680.401566	0.090710	0.244254	20513.398437
9680.402611	0.090875	0.244254	20608.363281
9680.403618	0.090699	0.244254	20699.697266
9681.378880	1.330298	0.246376	739.645569
9681.379940	1.714600	0.246376	2557.121094
9681.380832	1.678198	0.246376	4054.073730
9681.381754	1.629668	0.246376	5556.627441
9681.382833	1.575454	0.246376	7256.542480
9681.383782	1.530018	0.246376	8708.530273
9681.384654	1.488578	0.246376	10006.570312
9681.385717	1.441956	0.246376	11539.369141
9681.386731	1.399534	0.246376	12958.496094
9681.387625	1.362316	0.246376	14176.406250
9681.388585	1.324816	0.246376	15448.229492
9681.389651	1.283503	0.246376	16816.443359
9681.390573	1.249728	0.246376	17968.691406
9681.391436	1.218171	0.246376	19019.972656
9681.392510	0.686887	0.246376	19757.689453
9681.393515	0.092655	0.246376	19850.808594
9681.394393	0.090630	0.246376	19930.380859
9681.395383	0.090729	0.246376	20020.203125
9681.396436	0.090667	0.246376	20115.675781
9681.397335	0.090696	0.246376	20197.210937
9681.398190	0.090688	0.246376	20274.750000
9681.399255	0.090758	0.246376	20371.408203
9681.400251	0.090645	0.246376	20461.689453
9681.401139	0.090699	0.246376	20542.230469
9681.402123	0.090769	0.246376	20631.546875
9682.422319	1.297511	0.234948	679.895752
9682.423336	1.715537	0.234948	2424.596924
9682.424223	1.682249	0.234948	3916.751465
9682.425198	1.632231	0.234948	5508.177246
9682.426253	1.578061	0.234948	7173.032227
9682.427170	1.533519	0.234948	8579.269531
9682.428033	1.491621	0.234948	9866.539062
9682.429101	1.444600	0.234948	11409.371094
9682.430116	1.402013	0.234948	12832.414062
9682.431013	1.365458	0.234948	14057.229492
9682.432002	1.326116	0.234948	15368.757812
9682.433063	1.285360	0.234948	16732.525391
9682.433968	1.252009	0.234948	17865.593750
9682.434835	1.219416	0.234948	18922.828125
9682.435957	0.701173	0.234948	19709.544922
9682.436914	0.093721	0.234948	19799.236328
9682.437780	0.090685	0.234948	19877.769531
9682.438835	0.090820	0.234948	19973.585937
9682.439872	0.090663	0.234948	20067.603516
9682.440765	0.090685	0.234948	20148.585937
9682.441685	0.090630	0.234948	20231.964844
9682.442751	0.090670	0.234948	20328.619141
9682.443702	0.090634	0.234948	20414.812500
9682.444566	0.090707	0.234948	20493.183594
9682.445629	0.090718	0.234948	20589.617187
9683.414453	1.186542	0.258059	499.534088
9683.415493	1.713043	0.258059	2281.099121
9683.416524	1.678901	0.258059	4012.046387
9683.417417	1.632235	0.258059	5469.632324
9683.418379	1.584009	0.258059	6993.448730
9683.419440	1.532252	0.258059	8619.167969
9683.420371	1.488245	0.258059	10004.723633
9683.421245	1.448610	0.258059	11270.808594
9683.422322	1.404287	0.258059	12783.225586
9683.423317	1.362803	0.258059	14139.214844
9683.424212	1.327452	0.258059	15327.285156
9683.425196	1.290037	0.258059	16596.681641
9683.426267	1.250552	0.258059	17936.023437
9683.427183	1.217530	0.258059	19051.281250
9683.428060	0.821642	0.258059	19771.861328
9683.429158	0.095885	0.258059	19877.142578
9683.430125	0.090703	0.258059	19964.851562
9683.430984	0.090725	0.258059	20042.785156
9683.432069	0.090831	0.258059	20141.337891
9683.433109	0.090714	0.258059	20235.679687
9683.433985	0.090780	0.258059	20315.203125
9683.434895	0.090721	0.258059	20397.759766
9683.435944	0.090813	0.258059	20493.023437
9683.436887	0.090758	0.258059	20578.607422
9683.437745	0.090791	0.258059	20656.505859
9684.463084	1.253222	0.230163	594.026978
9684.463965	1.713354	0.230163	2103.492187
9684.464946	1.688141	0.230163	3759.558350
9684.465995	1.632799	0.230163	5472.364258
9684.466929	1.585173	0.230163	6952.916016
9684.467791	1.541883	0.230163	8282.019531
9684.468876	1.492493	0.230163	9901.374023
9684.469888	1.446746	0.230163	11365.480469
9684.470767	1.409572	0.230163	12604.494141
9684.471740	1.369515	0.230163	13937.032227
9684.472830	1.326779	0.230163	15383.220703
9684.473723	1.290985	0.230163	16536.070312
9684.474593	1.257631	0.230163	17630.208984
9684.475696	1.219603	0.230163	18975.431641
9684.476682	0.826725	0.230163	19790.582031
9684.477546	0.104414	0.230163	19880.794922
9684.478604	0.090637	0.230163	19976.689453
9684.479656	0.090773	0.230163	20072.181641
9684.480543	0.090729	0.230163	20152.658203
9684.481469	0.090787	0.230163	20236.726562
9684.482536	0.090747	0.230163	20333.552734
9684.483476	0.090604	0.230163	20418.720703
9684.484342	0.090663	0.230163	20497.234375
9684.485391	0.090791	0.230163	20592.474609
9684.486406	0.090667	0.230163	20684.501953
9685.449232	1.268005	0.270220	640.342712
9685.450141	1.714827	0.270220	2199.120117
9685.451005	1.688727	0.270220	3658.180176
9685.452079	1.633696	0.270220	5412.770020
9685.453101	1.581533	0.270220	7029.096680
9685.454000	1.538419	0.270220	8412.135742
9685.454982	1.492361	0.270220	9877.633789
9685.456055	1.444966	0.270220	11428.082031
9685.456966	1.405964	0.270220	12708.916016
9685.457831	1.368801	0.270220	13892.928711
9685.458927	1.326603	0.270220	15346.885742
9685.459899	1.289169	0.270220	16599.957031
9685.460774	1.256645	0.270220	17699.521484
9685.461860	1.218362	0.270220	19022.662109
9685.462910	0.696288	0.270220	19753.763672
9685.463800	0.095039	0.270220	19838.347656
9685.464722	0.090729	0.270220	19922.000000
9685.465776	0.090707	0.270220	20017.605469
9685.466716	0.090645	0.270220	20102.810547
9685.467579	0.090707	0.270220	20181.089844
9685.468630	0.090688	0.270220	20276.404297
9685.469653	0.090645	0.270220	20369.132812
9685.470531	0.090656	0.270220	20448.728516
9685.471487	0.090718	0.270220	20535.455078
9685.472538	0.090714	0.270220	20630.794922
